timestamp,AccX,AccY,AccZ,pitch,yaw,roll
3715.0844045,0.0609834790229797,0.0445498116314411,0.0260436534881591,2.927975040203035,-0.46756186907593944,18.141884676334623
3715.1045405,0.0153734982013702,0.0265437886118888,0.009626030921936,5.0319552649138455,-4.59936877456752,-12.844438307256212
3715.1246765,0.0291756391525268,-0.0045730657875537,0.0004533529281616,1.957897535966513,0.5012605785976065,-14.239333506639973
3715.1448125,0.0284907817840576,-0.0067228227853775,-0.0153135061264038,-0.21394475429279414,3.8820379115149435,-15.839574674517287
3715.1649495,0.0207518637180328,0.0233119055628776,-0.0026332139968872,4.2182292452793035,4.006587962625699,-18.013670461512987
3715.1850855,0.028381735086441,0.0479675680398941,0.0099340081214904,9.362349193279961,4.062710920081764,-19.500966195240288
3715.2052215,0.0360250771045684,0.0423635505139827,0.0228201150894165,8.22111341092282,6.902645305303197,-19.65714068748934
3715.2253575,0.0381707251071929,0.0407757237553596,0.0339211225509643,3.544916379292773,9.17821919554669,-19.824560328204743
3715.2454935,0.040711373090744,0.0701762810349464,0.0287296772003173,3.494974076262891,10.08723060012186,-20.37407435975256
3715.2656305,0.0540207028388977,0.0819728523492813,0.0380558371543884,7.232237321089463,11.177539921343097,-21.07535045701132
3715.2857665,0.0680690705776214,0.0832796320319175,0.0284482240676879,8.79077303612159,12.99124672564771,-20.620565390718415
3715.3059025,0.0737864226102829,0.0788088366389274,0.0068346858024597,5.652943057550974,15.932795621765495,-20.641529218271337
3715.3260385,0.2108775824308395,0.0943055227398872,0.0055437684059143,2.830743135419622,24.023321785783438,-23.034603035795254
3715.3461755,0.0138806253671646,0.0773646011948585,-0.0340038537979126,-3.5165275240379046,18.347697291347842,-21.848289970763535
3715.3663115,0.1100419163703918,0.1041911467909812,-0.029676616191864,3.9050239931288644,20.516575112796165,-23.815793779330985
3715.3864475,0.1217618882656097,0.0638501793146133,-0.007985770702362,3.691067039927187,17.775445999775073,-21.986367785913163
3715.4065835,0.1055818647146225,0.0316098630428314,-0.008519172668457,-5.035977826709548,17.633932390102093,-19.021511532785595
3715.4267195,0.1258665174245834,0.0554801821708679,-0.0349373817443847,-10.237974160062425,15.255654056393485,-17.17224700751574
3715.4468565,0.1174030303955078,0.071553811430931,-0.0202872157096862,-4.057051825484725,11.84954592047296,-17.767789475356643
3715.4669925,0.0931292027235031,0.0777653828263282,0.0162223577499389,4.998322745923556,8.380838067624108,-19.58138661679385
3715.4871285,0.0522816032171249,0.0508894547820091,0.0683138966560363,6.514179409790732,6.398530610842146,-19.5313552944536
3715.5072645,0.0441217571496963,0.0294555723667144,0.0724886655807495,2.3800365577337335,6.867732917317748,-20.374472719935977
3715.527401500001,0.0140020251274108,0.0309508293867111,0.087519347667694,-3.8129476841390897,6.7285070540192615,-19.79641832734087
3715.5475375,-0.0086327791213989,0.0219367668032646,0.0885807871818542,-7.218768068545178,4.622570895479239,-18.276615357372084
3715.5676735,-0.0219146460294723,0.0369002595543861,0.0723363757133483,-4.177503628289747,1.5348805759792583,-15.554380359429931
3715.5878095,-0.0272838026285171,0.0389650389552116,0.0719020366668701,1.2843839111895683,-1.5995914314863136,-11.563636357372609
3715.6079455,-0.0098293125629425,-0.003164954483509,0.0537170767784118,3.3722110104584146,-3.43416735624702,-9.177886281018743
3715.6280825,-0.0057977586984634,-0.0132667794823646,0.0378090143203735,2.101637847683313,-4.517439558252256,-6.765397214842661
3715.6482185,-0.0002018809318542,-0.0241242796182632,0.0295124650001525,2.210314335944541,-5.472419729833633,-5.058471135086862
3715.6683545,0.0048385262489318,-0.0298240706324577,0.0274552106857299,2.4301886955349294,-4.354219810939219,-4.284866518744845
3715.6884905,0.003450259566307,-0.0297775715589523,0.0318030714988708,7.145601603741403,-1.4096366876563682,-1.3882535128268536
3715.7086275,0.0057309418916702,-0.0520140826702117,0.0286183953285217,9.981568790139717,3.0523119232541474,1.5036519539962434
3715.7287635,-0.0092110037803649,-0.0584160238504409,0.0388361811637878,8.876262806981172,8.264420927310145,5.117204162220368
3715.7488995,-0.0325931757688522,-0.078572854399681,0.0473753809928894,5.30647906631434,11.783969849591047,10.719184077053434
3715.7690355,-0.0365957617759704,-0.0447109937667846,0.0429039597511291,5.841075524072847,13.375810324601956,14.329091498068891
3715.7891715,-0.0433539897203445,-0.0423988848924636,0.0465537905693054,12.000401968737595,13.623262903747646,17.34743451751095
3715.809309,-0.0387987047433853,-0.0527803227305412,0.0586054325103759,14.160925237945765,13.506812638240273,20.648503451337064
3715.829445,-0.0614107102155685,-0.0507317408919334,0.0745253562927246,15.116747637236205,12.406605123494163,24.5760396880101
3715.849581,-0.0596944242715835,-0.1021238639950752,0.0648872256278991,10.497860038178342,12.022145774240478,29.867436974720363
3715.869717,-0.043730080127716,-0.1124790757894516,0.0398042798042297,2.4765414286513465,11.943062349162581,34.14715360076439
3715.889853,-0.0615554004907608,-0.0675864219665527,-0.0003359913825988,5.848735738195909,10.73746452548705,33.70079662678567
3715.90999,-0.0722668468952179,-0.0630293935537338,-0.0192134976387023,14.53653267788182,8.28685465720711,32.42672383002407
3715.930126,-0.0893808007240295,-0.0928117856383323,-0.0081490874290466,15.844049878802036,7.100161817112971,32.579446461647166
3715.950262,-0.0949256867170333,-0.0989764630794525,-0.0404778122901916,12.939989207936264,6.634854452839134,31.22811625695281
3715.970398,-0.0928962677717208,-0.0701824575662612,-0.0627641081809997,12.156302598688029,5.586583942044232,26.90452719017431
3715.990535,-0.1014482378959655,-0.0432450771331787,-0.0902932286262512,15.879468550507392,4.420015996830351,21.184910913911192
3716.010671,-0.1006098687648773,-0.0140311270952224,-0.0932400822639465,22.782427970719965,3.738622777834033,16.351939482025646
3716.030807,-0.1104680597782135,-0.0422065705060958,-0.0377053618431091,24.792274305894235,4.324040829937026,11.914156783459529
3716.050943,-0.1342906653881073,-0.054910123348236,-0.0314441323280334,20.35466780733044,5.746927294353954,7.744572176537279
3716.071079,-0.1337241232395172,-0.0510367453098297,-0.0561973452568054,16.27661992968772,6.800526212392866,4.202668689887279
3716.091216,-0.127503365278244,-0.0305709689855575,-0.0557442307472229,14.492551680006027,7.458523215356827,2.471791834141701
3716.111352,-0.1233229637145996,-0.0507655441761016,-0.0269737243652343,9.950439921250354,8.911238298197066,2.680994909889378
3716.131488,-0.1201086938381195,-0.0353035181760787,-0.0548601746559143,13.362955489115258,8.95241717709303,-0.16672581286760746
3716.151624,-0.1162194907665252,-0.0501692295074462,-0.0838084816932678,18.544878626578054,8.11578686787433,-2.435805498151744
3716.171761,-0.0949765741825103,-0.1404032260179519,-0.0644001364707946,10.326859407080402,12.29135738634386,-1.4174595983891258
3716.191897,-0.0531669855117797,-0.0835248380899429,-0.0943164825439453,4.60453182256062,17.889002168830803,-5.07226685269897
3716.212033,-0.0524538159370422,-0.0421767234802246,-0.114913523197174,11.19839944331913,21.91719116453612,-7.574790664748665
3716.232169,-0.0315200388431549,-0.0218570232391357,-0.1055391430854797,27.328312715421887,23.679104477398827,-9.988952541375351
3716.252305,-0.0198692381381988,-0.0963338166475296,-0.1145917773246765,33.34030046717346,28.22046614115532,-12.45683663308883
3716.272442,-0.0335897356271743,-0.1404015719890594,-0.0948983430862426,20.791698191851538,36.722637969658756,-11.894759719959147
3716.292578,-0.021208718419075,-0.1021686643362045,-0.0766336321830749,6.026271938480132,45.724994624481496,-14.291012132197611
3716.312714,-0.0279276520013809,-0.0644520223140716,-0.0892059803009033,3.0357445173285313,50.53729933821476,-15.480082599676592
3716.33285,-0.0280652940273284,-0.0178593397140502,-0.0894781947135925,15.436654280102857,50.660396245095555,-16.17290743689752
3716.352987,-0.0443279594182968,-0.0211471915245056,-0.0718493461608886,34.77614800155173,47.77953381129949,-16.46124261950659
3716.373123,-0.0401137173175811,-0.1363239884376526,-0.0215823650360107,31.28175103621258,49.70112017574948,-16.963757610886088
3716.393259,-0.0545917600393295,-0.1386469602584839,0.0077203512191772,7.882036937632808,55.7002448563809,-18.153721468443074
3716.413395,-0.0787451267242431,-0.0554120540618896,0.0161290168762207,-1.7196215593400233,57.63551165471057,-18.457903954036325
3716.433531,-0.0949112176895141,-0.0112708508968353,0.0411046147346496,11.592007947510474,55.3291534006604,-17.0214309097946
3716.453668,-0.1094594150781631,0.0116501450538635,-0.0066514015197753,41.857885347087716,51.1587810546823,-12.592402023764926
3716.473804,-0.1137406826019287,0.0517594814300537,-0.0200914144515991,75.74665704296564,44.586162512557515,-7.3942362978019816
3716.49394,-0.1323286890983581,0.0907063484191894,0.0291845798492431,106.99703502892355,37.40959694964321,-0.21535145992714888
3716.514076,-0.1559389680624008,0.0995475649833679,0.0399885177612304,132.90703498967122,29.01974636267539,8.459594441140084
3716.534213,-0.173603281378746,0.212129920721054,0.0267616510391235,161.80109840548357,16.561747426757023,19.920896848171044
3716.554349,-0.1560461670160293,0.1338783800601959,0.0814403295516967,179.95551780183678,4.61567749167866,28.037711977583957
3716.574485,-0.1400283277034759,0.1037502884864807,0.0878236889839172,165.0761521401188,-7.058921387680428,35.777250820777425
3716.594621,-0.1047839522361755,0.1512616872787475,0.0170860290527343,144.59921693351703,-17.584173745813025,39.978039515845865
3716.614757,-0.058100402355194,0.1753638386726379,-0.0150254368782043,129.56181932372104,-27.71247368351286,44.884148332077075
3716.634894,-0.0426094383001327,0.2216300368309021,0.0328774452209472,131.14339824509392,-41.845657292349436,52.32808950988614
3716.65503,-0.0370684266090393,0.1198366284370422,0.0009764432907104,134.28277680414098,-57.6837384869517,61.68627160432951
3716.675166,-0.0372148156166076,0.0562580227851867,-0.0853575468063354,128.00784127723333,-73.02269638504643,70.59386026504856
3716.695302,-0.0354987233877182,0.0217326283454895,-0.0399569272994995,102.45103821923145,-83.92603888208131,78.3432075494435
3716.715439,-0.0567940026521682,0.1584086418151855,0.1332473158836364,95.71845384355555,-101.84250733939413,94.36187535900444
3716.735575,-0.0563504993915557,0.4113528132438659,-0.1605800986289978,125.81737944058915,-164.0234008068929,138.90962943680645
3716.755711,-0.0482710599899292,0.5281505584716797,-0.2012140154838562,193.0380845950861,-255.76342504187846,214.42639578289632
3716.775847,0.0286929607391357,0.3327846527099609,0.0192919373512268,191.08257995559404,-340.1260304663425,296.6189651833508
3716.795983,0.1994248628616333,0.2583709955215454,0.2192434668540954,140.88602069670168,-365.5114578389362,328.21040606708783
3716.816119875,0.0335289239883422,-0.0491716861724853,0.2819051146507263,25.370834084705862,-323.9337584071781,283.9518449009088
3716.836255875,0.1014208793640136,-0.0591914057731628,0.154996782541275,-63.78541158620337,-193.6106583044678,157.5414432606433
3716.856391875,0.1655051708221435,-0.1556912660598755,0.0876421332359314,-147.44657396555033,-26.239015112743935,2.635093499013763
3716.876527875,0.0892272889614105,0.1720095872879028,-0.0007793009281158,-177.73773748064878,6.36830155081185,-23.90718905789697
3716.896664875,0.0811766684055328,0.2396473288536071,-0.0397573709487915,-148.54196243113762,-61.59327085532791,34.68544782094476
3716.916800875,0.14242023229599,0.2643739581108093,-0.0018898546695709,-119.73511737421525,-117.73935822873386,78.19357481287206
3716.936936875,0.1074787378311157,0.1853171586990356,-0.0304186940193176,-115.5881745512616,-128.22109306292793,84.05786989499546
3716.957072875,0.0468429923057556,0.0833648443222045,0.017569750547409,-138.76833058634972,-93.95474360409928,62.35057086291498
3716.977208875,0.0192856788635253,0.1237089037895202,0.0929473638534545,-162.88821725943876,-73.01208905777142,53.561521985330174
3716.997345875,0.1250205039978027,0.1348304152488708,0.0840299725532531,-170.34368804351274,-77.20913550191675,60.327997654893295
3717.017481875,0.171763002872467,0.1575313210487365,0.1231274902820587,-173.3232081825978,-81.0599944201245,64.05007738509418
3717.037617875,0.2184966206550598,0.149871289730072,0.1270684003829956,-181.64496949671457,-75.33383582770182,58.60357348102525
3717.057753875,0.2309641242027282,0.1172504127025604,0.0488814711570739,-183.58445163245455,-71.54192829119594,52.89142724019236
3717.077890875,0.2184287309646606,-0.002430647611618,0.0671557486057281,-191.45724463629995,-55.78241865524234,44.57185119792584
3717.098026875,0.1642552018165588,-0.0509155690670013,0.0802190601825714,-211.07612097649434,-22.014496985553933,37.185099422177004
3717.118162875,0.1537908911705017,0.0876587927341461,0.0745916962623596,-211.9566080870789,-11.86075267771507,47.98285298878291
3717.138298875,0.0906051397323608,0.0860415548086166,0.094352513551712,-198.90995255930451,-20.327134708243477,73.31762862261755
3717.158435875,0.1423978209495544,0.1597086191177368,0.0776598453521728,-175.76440931289713,-50.28647821239147,91.77572011076762
3717.178571875,0.132989764213562,0.1780118346214294,0.049558937549591,-152.2090865470862,-84.94655888840015,101.49712347169171
3717.198707875,0.2208144664764404,0.0947001427412033,0.0061851739883422,-137.21262899843586,-106.29111412060261,98.19552959935294
3717.218843875,0.2770349979400635,-0.0493086613714695,-0.0489071309566497,-127.07460189909546,-110.30147598428428,85.55177021060985
3717.238979875,0.3009957075119018,-0.1216703504323959,-0.1519306898117065,-120.98951465265712,-109.92892327543409,68.32000746768685
3717.259116875,0.2696409225463867,-0.1795160621404647,-0.0689959824085235,-110.17564708307465,-106.6589145614163,52.32805640295126
3717.279252875,0.2019574046134948,-0.2148206532001495,-0.024033173918724,-97.84087539619276,-102.46411209911344,41.550076176253725
3717.299388875,0.1669499278068542,-0.2097399532794952,-0.0711033344268798,-81.06820150162895,-107.86146450192433,31.126416112096678
3717.319524875,0.1342999339103698,-0.2280194908380508,-0.0872798711061477,-64.53405477333875,-118.63938559453722,18.52397363341467
3717.339661875,0.0919950008392334,-0.2701771855354309,-0.0505908727645874,-54.93282181905759,-123.79994180713787,9.087899063959526
3717.359797875,0.0523024201393127,-0.3011318743228912,-0.0375740230083465,-45.77693811658419,-116.97855162963613,4.481350511238702
3717.379933875,0.0239406824111938,-0.3933957815170288,-0.0753146409988403,-40.45531958258746,-103.14375643385745,4.466703376858305
3717.400069875,0.0567035675048828,-0.3870854079723358,-0.1021340489387512,-35.534719257940054,-94.18765351528577,3.1774303243608415
3717.420206875,0.0293912887573242,-0.4024521708488464,-0.0847105234861373,-27.446492200632022,-94.29514835905017,-0.8992735297610466
3717.440342875,0.0151666402816772,-0.4979429841041565,-0.0565171241760253,-22.12594658479663,-85.61145125359388,-0.31010187067153083
3717.460478875,0.0150662660598754,-0.5273981094360352,-0.056228369474411,-16.150930466253755,-67.51741933481696,3.348480634972617
3717.480614875,0.0331775546073913,-0.5869635343551636,-0.1096366643905639,-12.420577893373608,-42.395050691314395,8.2643402693094
3717.500750875,0.0253903269767761,-0.4486376047134399,-0.1661432236433029,-0.25736139827490234,-44.69160108061274,4.7322096215168585
3717.520887875,0.0041733980178833,-0.4717215895652771,-0.1069684326648712,15.34515446108724,-57.78182449926916,-0.5728616307401069
3717.541023875,0.0144682526588439,-0.5455479621887207,-0.1062354147434234,25.303967097077074,-50.784514021569294,0.49455225391383806
3717.561159875,0.0131657123565673,-0.5118837356567383,-0.1162355542182922,36.40954158955702,-38.23785100656636,3.419521856716301
3717.581295875,0.0204660892486572,-0.5065082907676697,-0.112188845872879,46.898439342889816,-21.48630503060147,7.56228901619167
3717.601432875,0.0153741240501403,-0.4987568259239197,-0.080881267786026,53.907049500279754,2.423937534089049,12.377399052697768
3717.621568875,0.0260120034217834,-0.4534993171691894,-0.0675641596317291,60.28052456656088,29.547845740586354,16.85068005084034
3717.641704875,0.0312485694885253,-0.3656008243560791,-0.0619823336601257,67.81899392513706,44.98064144156331,18.49484396093999
3717.661840875,0.0772250294685363,-0.3587700724601745,-0.0375787168741226,73.64938509646306,59.75009784194114,20.66511764421648
3717.681977875,0.1554257273674011,-0.343959629535675,-0.0458303093910217,77.47069175076584,81.00599113250624,20.935587631187502
3717.702113875,0.2044529318809509,-0.2990570664405823,-0.0183176547288894,78.50736109402878,103.45936768348665,19.53930637473391
3717.722249875,0.2876074314117431,-0.255323588848114,-0.0176869630813598,79.51838933163278,124.63284235578271,16.3037102345001
3717.742385875,0.3299208879470825,-0.2230720221996307,-0.023716390132904,80.80901337284824,144.48994808978347,9.742019789859313
3717.762521875,0.3207730054855346,-0.1724247336387634,-0.0171227306127548,84.08506765304551,160.12614079887123,0.1782260168205596
3717.782658875,0.2622567415237427,-0.191826194524765,-0.0412012785673141,91.30785877067066,174.69572383603412,-13.409492000744194
3717.802794875,0.178808331489563,-0.1431989222764969,-0.0220549553632736,100.91395533094246,186.32408644768822,-29.364634674382017
3717.822930166667,0.145700454711914,0.0010387077927589,-0.0148289799690246,112.5677396274146,178.13663734528689,-44.716681080153364
3717.843066166667,0.1668693423271179,0.1866835206747055,0.0022606998682022,124.77020856674281,158.38667351837117,-54.69855790018485
3717.863203166667,0.2054125666618347,0.1821337044239044,0.055605411529541,131.2597882087604,145.16067102442526,-65.8016485900589
3717.8833391666662,0.2597489356994629,0.2223422825336456,0.1327342987060547,126.12027900276973,141.41215917399208,-80.19627294643783
3717.903475166667,0.3369379043579101,0.3311181962490082,0.2912653982639313,106.59548145664984,155.757960374142,-101.26623231055376
3717.923611166667,0.3825942277908325,0.271999329328537,0.3719638586044311,85.5593427409139,169.29952464300902,-129.65542346901273
3717.943748166667,0.3143610954284668,0.1012986004352569,0.4442178905010223,45.24960204175361,205.6793597154895,-162.26815509681458
3717.963884166667,0.3496092557907104,0.322799414396286,0.1098589301109314,20.903298198872733,195.05496484999122,-177.64532327892582
3717.984020166667,0.2803462147712707,0.2953622341156006,-0.1449411809444427,32.42418435288883,123.40993080141959,-159.59646445140265
3718.0041561666662,0.2750115394592285,0.4564180076122284,-0.092021107673645,79.47666591776859,6.641287825998354,-115.90816097945655
3718.024292166667,0.0890946984291076,-0.2401071190834045,0.3816008567810058,80.64499167963302,8.306009701348849,-95.71267547144338
3718.0444291666663,0.0175727009773254,-0.1824648082256317,0.7086911797523499,-11.232296275453812,112.22960531944182,-120.00245788799546
3718.064565166667,0.0400802493095397,0.2120556235313415,0.0807245969772338,-54.6715181380204,146.58098481256818,-130.42714247112812
3718.084701166667,0.1097540855407714,0.4384631514549255,-0.0385185480117797,-7.4175747514839685,96.11659465880518,-112.18304492634026
3718.104837166667,0.0809355974197387,-0.1943969130516052,0.2193450927734375,-11.949319867710706,110.38029064581343,-116.35021029317194
3718.124974166667,-0.0905345678329467,0.1997786164283752,0.2005947232246399,18.541686678611846,74.71780471016159,-86.88311563901685
3718.145110166667,0.1308736801147461,-0.1532522141933441,0.3562602996826172,24.71024335605545,81.07261517182857,-73.69141486600483
3718.1652461666663,-0.048376441001892,0.1002732217311859,0.3412167429924011,34.87870054801263,76.89020537527065,-59.102791281867084
3718.185382166667,-0.0157246589660644,0.0397428274154663,0.169544517993927,58.544193192206784,41.673559057321526,-50.08476650808085
3718.205519166667,0.0463911890983581,0.0621547400951385,0.1136343479156494,59.251938865894616,28.257942029828655,-53.05396509059328
3718.225655166667,-0.0326218008995056,0.1827624440193176,0.3797196745872497,32.85261176828023,43.55289577333883,-54.37850315898736
3718.245791166667,-0.1442465186119079,0.1919096708297729,0.3004316091537475,47.97196024044332,30.065966445974055,-37.139044589273595
3718.265927166667,0.0677044987678527,0.1186815798282623,0.1331933140754699,84.7672684761113,-6.086039619996297,-17.92829900069215
3718.286064166667,0.104698896408081,-0.2735002040863037,0.3529231548309326,15.39148858303232,29.912134393309397,-43.45375450546811
3718.3062001666663,0.0959365367889404,-0.0045870542526245,0.253077745437622,-71.79667092958084,102.24172185041405,-87.78549351873224
3718.326336166667,0.0871386528015136,0.2545576095581054,-0.0964201688766479,-52.40032790706497,86.06147026309453,-79.16490023146316
3718.346472166667,0.1768243014812469,-0.0102082788944244,-0.1577915549278259,24.52636625396636,39.819828242368395,-57.13512471832054
3718.366609166667,0.1998729109764099,-0.3299982845783233,0.0629492998123169,19.873173608875305,46.88440321280042,-61.64807892606845
3718.386745166667,0.1926297545433044,-0.2138439714908599,0.0376847386360168,-59.85139658561902,86.7662609862781,-82.3402878181943
3718.406881166667,0.1276734173297882,-0.0236510634422302,-0.1145022511482238,-59.91924339976595,84.22470665462501,-80.83672036141323
3718.4270171666662,0.1219413578510284,-0.0442558526992797,-0.1814740300178527,-38.56398622077588,61.46968747882542,-75.67637470406403
3718.447153166667,0.1168988049030304,0.0278404355049133,-0.0043566823005676,-70.8572221480571,61.35858709623765,-76.4802219835154
3718.4672901666663,0.2022812962532043,-0.0033654570579528,-0.0298412442207336,-132.81893660556642,68.27019952909792,-74.78837567771262
3718.487426166667,0.2072013020515442,-0.0044888854026794,-0.1575510501861572,-153.600585218118,59.5762717700441,-68.17226949544164
3718.507562166667,0.0704284608364105,0.155757799744606,-0.2411825060844421,-125.77608425581586,46.17369539123368,-67.30840120603325
3718.527698166667,-0.0122963488101959,0.1460231989622116,-0.1523377895355224,-85.66558524089301,35.012490461522106,-71.94698710205643
3718.547835166667,-0.0747177898883819,0.1301390677690506,0.0300953388214111,-75.81133305391256,32.57319708178086,-74.58075180632645
3718.567971166666,-0.0057840049266815,0.1665341556072235,0.0610203742980957,-75.77676849876616,31.64467650489744,-71.62266177718948
3718.5881071666663,0.047805905342102,0.1498032212257385,0.128253161907196,-65.50564613102895,27.48494590396051,-64.99997749818212
3718.608243166667,0.1102215498685836,0.073880136013031,0.1570087671279907,-57.470211108302834,24.959542575224614,-55.531883999712406
3718.628380166667,0.1315676122903823,0.0750771164894104,0.075338065624237,-45.72614635653331,23.16450099284504,-44.93085610397189
3718.648516166667,0.0985079258680343,0.0470133647322654,0.1283859014511108,-33.520897573902666,20.31150947555851,-38.249856039764474
3718.668652166667,0.0454348623752594,0.0305914729833602,0.219105064868927,-27.522001623427215,19.241960726679963,-34.88448417552821
3718.688788166667,0.0133221298456192,0.0683945715427398,0.2119114995002746,-22.56100053325092,17.6665841482448,-30.22158514262685
3718.708925166667,0.002013087272644,0.0189835652709007,0.1934909224510193,-20.430090589452465,15.387192186124476,-23.660276202621766
3718.7290611666663,-0.0377617180347442,0.0346296280622482,0.2082422971725464,-19.519118085616526,11.094241065509447,-17.709300971395425
3718.749197166667,-0.0557859688997268,0.0274623185396194,0.176009714603424,-18.202013131217875,7.111781842400511,-12.145070326018192
3718.769333166667,-0.0707518607378006,0.0259985774755477,0.2073142528533935,-9.845725605974298,3.8354471589908457,-5.523173537633674
3718.789469166667,-0.0723779648542404,0.0237200781702995,0.2000093460083007,-1.064619063577421,0.999682452494266,0.9935721885916848
3718.809605,-0.0652663707733154,0.0293871946632862,0.2016838788986206,4.394498893613852,-1.1585982006135254,5.815837748862496
3718.829741,-0.0763454884290695,0.0582739561796188,0.204283058643341,7.79726774830376,-5.533212941555199,10.442506875533741
3718.849877,-0.0901506394147872,0.1160749942064285,0.2165490984916687,18.39220287222565,-13.266486090068774,15.235434914305923
3718.870013,-0.0910525023937225,0.0389222577214241,0.1955583691596985,31.35533789006577,-20.20186893881446,23.914776815277694
3718.89015,-0.0578466057777404,0.1082647070288658,0.136522114276886,40.00935059708546,-25.65410294494077,34.09842169182929
3718.910286,-0.123314082622528,0.1847257912158966,0.1595685482025146,50.582119404818386,-31.603540598595092,45.098295009076935
3718.930422,-0.0798740684986114,0.1581152081489563,0.1718631386756897,59.664146168781286,-36.70714197925031,58.49001640958882
3718.950558,-0.0666151642799377,0.2320982813835144,0.1127419471740722,83.00481501469883,-45.649139282387985,71.11473231464043
3718.970695,-0.0033099055290222,0.2605975270271301,0.0437505841255188,107.94145773268093,-60.614336002612305,81.64095830743632
3718.990831,-0.0149492919445037,0.185736134648323,0.060529887676239,124.32491561300694,-74.89972939880305,93.27496822046496
3719.010967,0.0621189773082733,0.1024381220340728,-0.0092770457267761,117.63357356275125,-84.61271016398864,102.49430096754644
3719.031103,0.0991459190845489,0.1152296960353851,-0.0910276174545288,99.86768389107885,-93.19237622549888,108.96722218032693
3719.05124,0.1403524577617645,0.1671909689903259,-0.1205093264579773,83.17814709485472,-100.83520017471285,112.26171244657817
3719.071376,0.1350927352905273,0.1544407606124878,-0.0205025076866149,85.4955472372744,-114.90428766425502,120.1732901257385
3719.091512,0.1264180839061737,-0.0555625259876251,0.0678990483283996,84.25621153501251,-130.00627967706015,128.77848479064653
3719.111648,0.1294730901718139,-0.1992192268371582,0.1166088581085205,30.15224044831033,-113.67132561769128,123.42622510981336
3719.131784,0.0963115096092224,-0.1849435865879058,0.0892953872680664,-24.416347329620258,-89.36380650750608,122.12536948338268
3719.151921,0.067382276058197,-0.0136160552501678,0.0329223871231079,-38.80854162532188,-94.00027897909457,134.05104803816351
3719.172057,0.0996199250221252,0.0130141675472259,-0.1487421989440918,-31.82627235616522,-111.9212053430152,144.57024445397587
3719.192193,0.0702723860740661,0.0258229970932006,-0.1178739070892334,-17.48665351761538,-122.49048911539884,147.03424537040206
3719.212329,-0.039483904838562,0.0112055540084838,0.0168793201446533,10.463344370940852,-146.34778358308313,157.3722774012918
3719.232466,-0.1264351606369018,0.088425725698471,0.0028690695762634,28.82183511067602,-182.47444251229626,173.5589423591005
3719.252602,-0.1972308754920959,0.139770358800888,0.063617467880249,38.23307330848369,-216.13666744584262,195.83732823291308
3719.272738,-0.2333029508590698,0.1911261081695556,0.170066237449646,13.74183191640821,-234.2227731769766,206.77524838585342
3719.292874,-0.0992433428764343,0.0686235725879669,0.0697792768478393,-30.43651166460215,-223.88566178094356,199.75468904796543
3719.313011,0.0693138241767883,0.1480728685855865,0.0061679184436798,-61.25641550640957,-211.69008964819903,186.5587645771381
3719.333147,0.1861748695373535,0.0813191831111908,0.0148996114730834,-87.28980008667513,-200.54169419901945,168.48946199621082
3719.353283,0.329566478729248,0.0703384578227996,0.0059812366962432,-109.40623763275532,-192.1299315541969,149.12788180747754
3719.373419,0.4991202354431152,-0.0807135105133056,-0.020184576511383,-129.9095157151398,-167.27592948829403,117.25350976268416
3719.393556,0.560726523399353,-0.2431161552667617,-0.0010412037372589,-140.04380057919664,-120.33509573368306,75.48194181485286
3719.413692,0.4646989107131958,-0.3090701401233673,0.0363343358039855,-137.43288682626726,-68.09391280574104,38.85814503654146
3719.433828,0.2787850499153137,-0.2691203653812408,0.0044470578432083,-117.48603234457944,-36.55673054197699,21.01769130894695
3719.453964,0.1288287043571472,-0.1787358224391937,0.0004463493824005,-86.42224150860334,-32.23963057017443,18.24278290442649
3719.474101,0.0476107597351074,-0.1093102470040321,-0.0271128416061401,-51.9222994266259,-43.8615704141565,19.159688704356626
3719.494237,0.0145689845085144,-0.1512486487627029,-0.0208330750465393,-22.23104464165484,-44.033065330316035,19.146206422483658
3719.514373,-0.0366376042366027,-0.0987732484936714,0.0278146862983703,-1.5316653451810547,-36.608852860340946,18.182569907276047
3719.534509,-0.0465022921562194,-0.0248901173472404,0.0387017726898193,13.403455290399013,-37.0998240764532,18.278818556427012
3719.554645,-0.0172812938690185,-0.0371794328093528,0.054497018456459,20.796674965526464,-39.22792145100935,17.417419764371544
3719.574782,0.0081350207328796,-0.119382731616497,0.0784931033849716,20.330537136993865,-28.010897040500637,12.966917145747914
3719.594918,-0.0146272778511047,-0.1364973187446594,0.10809987783432,15.675949969163394,-4.536916913631117,5.546770063994444
3719.615054,-0.0563350319862365,-0.1205920726060867,0.0949225425720214,10.240253618871398,13.258196367708308,-0.8886699529909947
3719.63519,-0.0721802115440368,-0.1149006113409996,0.084375575184822,7.681056370930861,18.929837751441525,-4.526530942484186
3719.655327,-0.072235882282257,-0.157130092382431,0.0843673348426818,6.8246754434805545,18.80389938533611,-6.511575318189955
3719.675463,-0.070917785167694,-0.1749107539653778,0.1136724203824997,5.0378935790652335,24.882954779862132,-10.956772929550596
3719.695599,-0.0528738498687744,-0.1237959936261177,0.0977057963609695,7.064866202174969,27.96828423855473,-12.753561545711278
3719.715735,-0.0625904202461242,-0.1475378572940826,0.0796567201614379,12.91946538773776,17.660501076604262,-11.74915771844951
3719.735872,-0.0220045447349548,-0.2301844656467437,0.0930584371089935,16.690165476264028,19.801797166427093,-9.045137252479662
3719.756008,0.0254657864570617,-0.177860140800476,0.1098658442497253,19.31708451857599,25.058544339852773,-9.868419053709232
3719.776144,0.0484530329704284,-0.2047559320926666,0.1106515675783157,18.63765468197154,37.71466420794631,-12.461840632808219
3719.79628,0.0675514340400695,-0.1754512339830398,0.1168760061264038,16.67607357453185,53.80319133535423,-15.681026416363864
3719.8164175,0.0911492109298706,-0.1175613105297088,0.1022628545761108,13.617199787645662,63.77881512653083,-18.6048351047873
3719.8365535,0.1184044480323791,-0.0516111552715301,0.0842878371477127,8.870823514053372,68.52551577272834,-20.045716464800734
3719.8566895,0.1695474982261657,-0.0550803244113922,0.0919283181428909,2.763997980362287,76.18536926535988,-22.7005984137854
3719.876825500001,0.2018859982490539,-0.0676933676004409,0.119773268699646,-6.071026583242611,89.34546466083049,-28.953345067809977
3719.8969625,0.2277043461799621,0.042814627289772,0.1105532646179199,-15.202170889887334,87.97483117842759,-27.747468496941252
3719.9170985,0.3513495326042175,0.0531142354011535,0.0389490127563476,-24.671992165466694,81.85750750278089,-28.92944039222627
3719.9372345,0.2805927395820617,0.0595923960208892,-0.043702095746994,-29.10823141616179,85.20449661011114,-40.322116410899156
3719.9573705,0.0159882307052612,0.1423090249300003,-0.0831207633018493,-25.58844597549936,71.8945800902528,-46.17981092494716
3719.9775065,-0.2111830115318298,0.2089609652757644,-0.1122497022151947,-11.329742000919385,32.51314338466571,-41.90346564524816
3719.9976435,-0.3556550741195678,0.2138837277889251,-0.1517021059989929,11.097732783453873,-9.009764822802424,-33.38813545766399
3720.0177795,-0.3676100969314575,0.1402743458747863,-0.1126642525196075,28.44069242505034,-19.78284556888319,-23.98123730043835
3720.0379155,-0.3267237544059753,0.140237808227539,-0.0832829475402832,35.41653252555661,-19.01260914626448,-13.977883336773544
3720.0580515,-0.1447983384132385,0.1611441671848297,-0.0830421447753906,36.067453624110215,-21.050022613300357,-7.423300755385043
3720.0781885,0.0287619829177856,0.0864948630332946,-0.0617215633392334,31.297503969338436,-16.06146324821509,-9.726572339470607
3720.0983245,0.1203154325485229,0.0116386860609054,0.0091685056686401,18.756508417581585,1.3032946467181006,-16.77449575504113
3720.1184605,0.1531440019607544,0.08417509496212,0.0230097770690917,5.518948889915709,13.581203139226972,-25.596926919893548
3720.1385965,0.1213005185127258,0.1142194867134094,0.065140426158905,4.911799833403752,10.428710326117496,-26.701950053613643
3720.1587335,0.0862786173820495,0.0543557852506637,0.0774043202400207,9.198542133841325,7.319294731245662,-24.453219606007792
3720.1788695,-0.0023106932640075,0.06024931371212,0.0131826996803283,16.66917516376385,-2.4050340824246064,-19.653373697940424
3720.1990055,-0.0464377999305725,0.0804706513881683,0.023114264011383,15.30940379225152,-1.6097622360227604,-16.092197459770574
3720.2191415,-0.074684202671051,0.1081333607435226,0.0529368817806243,11.535033015123553,3.8355686402834266,-14.605473378386336
3720.2392785,-0.1370278596878051,0.1386939287185669,0.0758469104766845,8.296539699153094,3.1757519506289356,-9.826530245066323
3720.2594145,-0.1431412100791931,0.1837092936038971,0.0743137598037719,9.336811576847559,-6.544161513800262,-1.6321564459659044
3720.2795505,-0.146168053150177,0.2654268145561218,0.0435375273227691,15.405892489305462,-38.167370453047056,11.500166018530678
3720.2996865,-0.1122291088104248,0.2303252667188644,0.0701136589050293,24.51694188156832,-76.11891730864784,27.071137743492102
3720.3198225,-0.0619710087776184,0.1260244697332382,0.0617469251155853,22.28006158322513,-91.86776880110017,34.512919680637566
3720.3399595,-0.0009079575538635,0.05399189889431,0.0058838427066802,12.158694141810322,-89.96799053894442,33.319382664525676
3720.3600955,0.0041310191154479,0.0673987865447998,0.05287966132164,2.7090827333934975,-74.07593672976596,30.994806486837945
3720.3802315,-0.0005324482917785,0.0905604064464569,0.0615236163139343,-6.659857056454044,-61.60013776171489,29.082728384646117
3720.4003675,-0.016578733921051,0.0373381823301315,0.0334565341472625,-15.220368423250008,-46.37002504887562,25.953893614011747
3720.4205045,-0.0525822043418884,0.0682810544967651,0.0201382339000701,-22.65164219373821,-33.17128111634915,24.927777637665827
3720.4406405,-0.052954614162445,0.0793399512767791,-0.0049585998058319,-26.001478229159947,-28.238248085789053,26.174117486954884
3720.4607765,-0.0506945848464965,0.0559966415166854,-0.0330883562564849,-30.466485820099454,-22.957958053752847,27.88062345191662
3720.4809125,-0.0523862838745117,0.0552585273981094,-0.036056250333786,-34.59770986959185,-21.69127253177372,29.224865101577535
3720.5010495,-0.059532344341278,0.0145321488380432,-0.0414237082004547,-38.67015588279745,-19.254350622303207,29.5450055348212
3720.5211855,-0.073577880859375,-0.0134927034378051,-0.0412741601467132,-43.0293387399018,-14.628958609929654,29.64790994166293
3720.5413215,-0.0752245783805847,-0.0265729501843452,-0.0511376857757568,-46.22620383172733,-11.092354001599602,31.290318264624517
3720.5614575,-0.0385417342185974,-0.0516041591763496,-0.054361268877983,-49.09197420383195,-6.850735395483198,33.309930417343026
3720.5815945,0.0154778361320495,-0.0818035155534744,-0.0640279054641723,-52.85436949595868,-1.0883222926732827,34.3761554788955
3720.6017305,0.0884436964988708,-0.1073673367500305,-0.0883938074111938,-55.58713164238378,6.5064178307530085,34.54297659884702
3720.6218665,0.143908679485321,-0.121537260711193,-0.0901512205600738,-56.408011576839925,11.133675966870626,34.781253757397934
3720.6420025,0.2243673205375671,-0.1566011905670166,-0.1006326377391815,-55.369011171670316,14.947607638509197,33.76825766359488
3720.6621385,0.2702608108520508,-0.2005346119403839,-0.1219773739576339,-52.73346616144008,23.019089807235815,29.227744602766847
3720.6822755,0.2202433943748474,-0.2211941927671432,-0.1286566108465194,-46.46563501135457,33.37032526810866,20.167741851399512
3720.7024115,0.0706249475479126,-0.2360942363739013,-0.1489991098642349,-36.44067340740109,43.96819148764344,10.23355748664656
3720.7225475,-0.0755865573883056,-0.168976679444313,-0.1421644240617752,-21.7947038178826,44.67558818137647,3.0924565753231548
3720.7426835,-0.1294376254081726,-0.1346157640218734,-0.1350937485694885,-4.4227756795839674,40.13756028422719,-3.2373162916798037
3720.7628205,-0.1191678643226623,-0.094250813126564,-0.1025461554527282,9.681177972422706,36.791423142121005,-9.670489933074577
3720.7829565,-0.0157464742660522,-0.0746459290385246,-0.0637677460908889,17.70275898360746,36.8897085989925,-15.301773106085648
3720.8030925,0.1233749389648437,-0.0785230547189712,-0.0320443958044052,21.857122626260168,43.3985719376512,-22.598877951285345
3720.82323025,0.2227430939674377,-0.0882328748703002,0.0053258538246154,24.20400166570276,54.24571764993971,-31.395298628029167
3720.84336725,0.2654201984405517,-0.0600665062665939,0.0436954200267791,28.366235106424696,61.11040583003273,-40.42121104495777
3720.86350325,0.2814155220985412,-0.0433081351220607,0.075535848736763,35.98947420360608,59.44258892725962,-48.175349061711614
3720.88363925,0.2664574384689331,-0.01058198697865,0.0952022820711135,45.85594993954271,51.71258340992395,-55.3343896114491
3720.90377525,0.2093309760093689,0.0397216789424419,0.1029247045516967,56.51144664355311,39.2937490909091,-61.496054369715836
3720.92391225,0.1258118748664856,0.1029516831040382,0.1062623262405395,68.45083318585303,21.340280389267008,-65.24213178932001
3720.94404825,0.0606224536895751,0.1735972166061401,0.1161398589611053,80.78541567837804,-2.7102497768282774,-64.36320227109888
3720.96418425,0.0330117940902709,0.2192908972501754,0.1458827257156372,92.7843182150299,-29.835308276097905,-59.37512310609776
3720.98432025,0.0162708163261413,0.260951817035675,0.1803200840950012,102.53741420082147,-57.09499227929875,-51.02802651948366
3721.00445725,0.0167176127433776,0.256703108549118,0.2160252928733825,107.07179531111484,-76.41725929346421,-41.10471114965222
3721.02459325,0.0173525214195251,0.2527831792831421,0.2563321888446808,105.96514577603085,-87.97129348106623,-31.582008400705774
3721.04472925,0.0188338756561279,0.2413671612739563,0.300468236207962,98.93511285368488,-91.03612902847225,-23.96876976915223
3721.06486525,0.0174111723899841,0.2322305738925933,0.3360842168331146,85.79770430580584,-84.85147609581531,-19.68244964924324
3721.08500225,0.0522994995117187,0.1537283957004547,0.3132674098014831,66.2102175460852,-66.97499874084514,-22.80121294156885
3721.10513825,0.0942943096160888,0.1489688158035278,0.2887632846832275,42.80063763484723,-47.77113293478763,-29.983127792515063
3721.12527425,0.136657178401947,0.1589508354663849,0.2577396035194397,24.221163920368305,-38.350207905007494,-36.58361034712314
3721.14541025,0.1624342203140258,0.1906813085079193,0.2394384145736694,15.614834389311127,-40.82517297406447,-39.245067460365135
3721.16554625,0.1829061508178711,0.2083579301834106,0.2485490441322326,14.241008618864015,-54.41914451890746,-36.55464675485618
3721.18568325,0.2109297513961792,0.1967205703258514,0.2530116140842438,14.825145777012771,-68.93131207831686,-32.94747150177244
3721.20581925,0.2111494541168213,0.208747386932373,0.2571633756160736,17.669568776337563,-84.63814848826665,-26.470835898345157
3721.22595525,0.2021788954734802,0.2137313783168792,0.260562002658844,21.695138040678508,-101.7211724043186,-18.891192905149623
3721.24609125,0.1495231986045837,0.2550646364688873,0.2675248384475708,25.08331750987889,-120.05898102464627,-9.286824334069621
3721.26622825,0.1117759943008422,0.2851279675960541,0.2729931175708771,27.951207274623968,-142.759925932609,4.792028364169809
3721.28636425,0.1107987165451049,0.2918712794780731,0.293617695569992,27.146987589311067,-165.09194071323952,20.110762888250022
3721.30650025,0.0954210758209228,0.2707247734069824,0.308936059474945,17.16473788762425,-177.50309054594382,30.503909306854027
3721.32663625,0.0519130229949951,0.2660779058933258,0.322653591632843,2.5590970512912037,-184.55661723669508,38.05599266286883
3721.34677325,0.0019851922988891,0.2345397174358368,0.3235441446304321,-14.006852827783511,-188.2073392907813,44.52221733385073
3721.36690925,-0.0373302102088928,0.1973142325878143,0.3217136263847351,-30.4848367853646,-185.68165264430476,49.298301166269454
3721.38704525,-0.0641886591911315,0.1522721350193023,0.2848665118217468,-47.191694774504356,-176.2722300432891,52.47566293687953
3721.40718125,-0.0540358424186706,0.1335197687149047,0.2324488759040832,-62.90787417147161,-167.07826170334883,55.52710364443456
3721.42731825,0.0109000205993652,0.1402377784252166,0.2094035744667053,-79.165620010847,-161.34161254878308,60.08003800181854
3721.44745425,0.1513753533363342,0.0831594169139862,0.1624762117862701,-94.8243115531005,-157.98756207025164,62.67428156370514
3721.46759025,0.2708756327629089,-0.0146768391132354,0.0759834349155426,-112.48775795484427,-149.43368959342394,55.51435330402299
3721.48772625,0.2519188523292541,-0.0489684045314788,0.0378140211105346,-126.2514210196266,-138.24264808998947,43.829308428644254
3721.50786225,0.1679344773292541,-0.0896553695201873,0.013185977935791,-127.94361526245535,-132.55612508768593,34.63399380691499
3721.52799925,0.0963497161865234,-0.1254302412271499,-0.0261972546577453,-118.5487805222528,-133.33698093808408,28.833698611208547
3721.54813525,0.046802282333374,-0.1378042101860046,-0.0407126545906066,-105.55665999910207,-132.8919177001083,23.67807902747998
3721.56827125,0.0237668752670288,-0.1176602840423584,-0.0502882301807403,-93.20818578602098,-131.54556316429478,19.082678518660146
3721.58840725,0.03470379114151,-0.1162691116333007,-0.0617777109146118,-80.0137182539981,-137.9643044226384,14.189434122388889
3721.60854425,0.0279935002326965,-0.094647891819477,-0.0359560251235961,-67.43320853159707,-150.01865693338416,9.335851536513218
3721.62868025,0.0516376495361328,-0.1064425110816955,0.0023378729820251,-55.73487403652423,-158.71473086805352,3.5760734860254217
3721.64881625,0.0756939649581909,-0.133682981133461,0.0436664521694183,-45.65059536183082,-160.02087687565023,-2.7906780205711357
3721.66895225,0.042076289653778,-0.1718562841415405,0.0920927226543426,-37.59512255786033,-154.47090325758666,-7.124971634532784
3721.68908925,0.0227489471435546,-0.1900280714035034,0.1166407465934753,-29.611878616251442,-145.38601187945588,-8.851585386221927
3721.70922525,-0.0221222639083862,-0.1996905207633972,0.128697007894516,-20.70997271828712,-135.5190189110914,-7.840119128087508
3721.72936125,-0.0513961315155029,-0.2061194330453872,0.1188474893569946,-11.702033980564263,-125.07067522246587,-5.136957583175672
3721.74949725,-0.0654842257499694,-0.2221457660198211,0.1033894121646881,-3.2091709360092757,-114.36274273194726,-2.4517733148861964
3721.76963425,-0.0609956383705139,-0.235570952296257,0.0846666693687439,3.59729842929426,-103.85155394260721,0.23698539220404768
3721.78977025,-0.0540951490402221,-0.2533775568008423,0.0921706557273864,9.237701497107164,-91.9977984203868,2.640702685312135
3721.809905875,-0.0441009998321533,-0.2887755930423736,0.0922857224941253,12.786615543130498,-74.62425718615293,5.681342313592097
3721.830041875,-0.0372558832168579,-0.2975890338420868,0.0930135846138,14.282416071896552,-53.162731417975806,9.475162937786052
3721.850177875,0.0137914419174194,-0.2913768291473388,0.0719705820083618,16.410454034561184,-31.54608397680363,13.027699063798792
3721.870314875,0.0738748908042907,-0.2802527844905853,0.0502050668001174,18.851995446729262,-10.625374269537247,15.04928161669099
3721.890450875,0.1156895756721496,-0.2362440079450607,0.0328431129455566,23.445044159751728,5.619841579142815,15.306001982116868
3721.910586875,0.1033002734184265,-0.1796183884143829,0.0113487839698791,30.03589841377438,15.506191823000393,13.758226580205957
3721.930722875,0.018401026725769,-0.117016777396202,0.0007591843605041,38.84687178535399,18.100783566677592,12.011159498949553
3721.950859875,-0.0735778212547302,-0.0667463243007659,-0.0057300180196762,47.23638134260518,15.777710592475103,12.209969745038762
3721.970995875,-0.1017315983772277,-0.0339089222252368,-0.0062436461448669,53.484639636897455,9.848775292643097,14.095393316065952
3721.991131875,-0.053885281085968,-0.0328634083271026,0.0064676105976104,54.37532298133385,7.9694579277315825,16.92202636075706
3722.011267875,0.0292539596557617,-0.0230344906449317,0.0222368240356445,48.28071873745645,10.65580572832232,20.059667812606108
3722.031404875,0.1506345272064209,-0.0303562730550766,0.0150699615478515,35.79045792309277,13.924627770040843,23.413007027330224
3722.051540875,0.2284022569656372,-0.0433118939399719,0.0110175311565399,18.47389663142529,18.74260408825279,24.911775458608076
3722.071676875,0.2110623121261596,-0.0748972669243812,-0.0104276835918426,1.010699960499073,23.577968988325892,24.473935776549638
3722.091812875,0.0986583828926086,-0.1126244217157363,-0.0540892779827117,-12.44304805062515,25.75190209398812,25.059685383443764
3722.111949875,-0.022481083869934,-0.1252337098121643,-0.1000953912734985,-18.968376688773645,25.925853554730338,27.206091376538666
3722.132085875,-0.11846923828125,-0.127851516008377,-0.1347588449716568,-18.966853643610726,23.693130937577678,29.714819863762187
3722.152221875,-0.1926195621490478,-0.1222899779677391,-0.1640492081642151,-15.581706143406148,19.01834311426711,30.81480210958958
3722.172357875,-0.2568457722663879,-0.1302110850811004,-0.1738037914037704,-11.878532663247231,14.6940893705505,31.875874765024292
3722.192493875,-0.2749963998794555,-0.144318088889122,-0.155190885066986,-10.097103338092527,16.20885723889387,32.88779949199778
3722.212630875,-0.2512887120246887,-0.1611412763595581,-0.1339215040206909,-11.540132999621534,25.685077499713316,32.95847178323896
3722.232766875,-0.2119374275207519,-0.1569916009902954,-0.1196531653404235,-14.449618435692413,36.085452271042584,32.0655396689034
3722.252902875,-0.1443910002708435,-0.1676606386899948,-0.1107261702418327,-19.922860253800103,47.52414152564057,31.194153929297386
3722.273038875,-0.0500359535217285,-0.167431354522705,-0.10831069201231,-27.430342755094973,58.942276757299794,29.341594235439317
3722.293175875,0.0401584506034851,-0.1609715968370437,-0.1248120591044426,-34.79669136028972,66.6532217318661,25.32987007224321
3722.313311875,0.0978311896324157,-0.1820876449346542,-0.1222660467028617,-40.95959100117131,73.8722031033717,21.095944185797322
3722.333447875,0.1854276657104492,-0.195524975657463,-0.1390441656112671,-43.87229975275191,78.31627907697225,14.794518246624477
3722.353583875,0.0267863869667053,-0.1673848032951355,-0.1537153720855713,-38.11253534188724,72.6614108381554,2.971429202835907
3722.373720875,-0.0967460870742797,-0.1356400102376938,-0.1157079190015792,-27.22224313539344,50.446401116849415,3.1652493310360796
3722.393856875,0.0561238527297973,-0.1578813046216964,-0.1152994036674499,-14.589865470017182,29.821511050475635,3.4880509174058716
3722.413992875,0.0774973034858703,-0.1306423246860504,-0.1147515177726745,0.5307009528251472,18.400337622052376,-1.5721829585061187
3722.434128875,0.0535144209861755,-0.1095198392868042,-0.0982664227485656,11.645675867752004,8.54062225867196,-3.2802485659146896
3722.454264875,0.1016040444374084,-0.1014872714877128,-0.073502779006958,18.471693121208986,1.5779867297922578,-4.610682016641476
3722.474401875,0.1188541054725647,-0.0901846438646316,-0.0656118988990783,24.51544972521868,-2.196906955759914,-7.381175019613551
3722.494537875,0.0929933190345764,-0.0720263421535492,-0.0501300692558288,28.984083915501145,-3.1795030507282718,-9.911248855276256
3722.514673875,0.0657328367233276,-0.0752070769667625,-0.0359867140650749,32.415650905927926,-2.6463461490813245,-12.489306083553942
3722.534809875,0.0529703497886657,-0.0725507885217666,-0.0312787294387817,35.37113465174682,-1.1522779212512546,-14.87900649777103
3722.554946875,0.0619061589241027,-0.0735456570982933,-0.037891149520874,38.25385226584509,1.7785643961246933,-18.099171559055094
3722.575082875,0.0597226023674011,-0.0743008852005004,-0.038754753768444,39.92090300135979,6.934057074492017,-22.075580957665863
3722.595218875,0.0561630129814147,-0.0687413364648819,-0.0407712459564209,40.772363678448656,12.511472377751431,-26.510117028271907
3722.615354875,0.0600553750991821,-0.0545980185270309,-0.0377232432365417,41.358034321522965,15.857519159436606,-30.34704203578471
3722.635491875,0.0788446068763732,-0.0407761931419372,-0.026028037071228,42.278051126924154,15.068835952698123,-34.18508741636259
3722.655627875,0.0900304913520813,-0.0360151305794715,-0.0098166465759277,43.39828054922559,14.013561024240317,-38.369889406335744
3722.675763875,0.0954096317291259,-0.0289258137345314,0.0109325647354125,44.68274776502277,13.98810216440367,-42.43899057685567
3722.695899875,0.0930814743041992,-0.0056284815073013,0.0342765599489212,45.83594926315193,12.659240426663843,-45.65354227558487
3722.716035875,0.0833479762077331,0.0134743005037307,0.0578676015138626,47.0479273633694,10.004450135272691,-47.498820684850784
3722.736172875,0.068415343761444,0.0359636545181274,0.0841505229473114,47.786396754700355,7.237149677740717,-47.8984692845458
3722.756308875,0.0594137907028198,0.0519812852144241,0.1105078011751174,47.16169612777392,5.413386666441511,-48.152259680770726
3722.776444875,0.0469197630882263,0.0615565329790115,0.1318169385194778,45.20197651776794,5.863692631352535,-48.26009176087567
3722.796580875,0.0316798090934753,0.0793998688459396,0.1597013771533966,42.47724041654788,5.254609245888986,-47.443989011853205
3722.816716875,0.0224575400352478,0.0854318588972091,0.178381860256195,39.110671765916024,5.702637397961752,-46.68562465588266
3722.836852875,0.0055316686630249,0.100875586271286,0.1923894882202148,35.939293489949975,5.429014040662139,-45.22687937340493
3722.856988875,-0.0068863630294799,0.1130037903785705,0.210379421710968,32.78571642710099,3.6327551231096322,-43.045624884302924
3722.877124875,-0.0068049430847167,0.1217611730098724,0.2261217534542083,29.308953556139272,0.9048717484652968,-39.82407608575116
3722.897261875,-0.0028989911079406,0.1290394365787506,0.2395289540290832,25.759932855507728,-2.9812520829089806,-36.14970959396899
3722.917397875,-0.0179862976074218,0.1251289248466491,0.2421737909317016,21.534524476314143,-5.2304688612871075,-32.7936872984786
3722.937533875,-0.0362142324447631,0.1410841941833496,0.2460171282291412,18.157981021068892,-9.864472456720819,-28.473565957402514
3722.957669875,-0.0561500787734985,0.1401668190956115,0.2597576081752777,15.919252410034801,-16.306715067579347,-23.826368739978676
3722.977805875,-0.0818449258804321,0.1259321272373199,0.2660848498344421,13.166823322208288,-19.536003332534335,-19.004592832533262
3722.997942875,-0.0819413065910339,0.1156941950321197,0.2720837891101837,10.526388954725796,-21.892541131656884,-12.752986223082985
3723.018078875,-0.0233703255653381,0.0862080454826355,0.2730458080768585,6.439208618086845,-19.78052072935128,-7.205347560582709
3723.038214875,0.04341721534729,0.0688567459583282,0.2639278173446655,1.9642364986200533,-15.582138710450266,-3.3556316899790772
3723.058350875,0.0922403335571289,0.0741331279277801,0.251023530960083,-3.399906983718992,-11.885283646719813,0.20218083950709342
3723.078487875,0.0902557969093322,0.1041556596755981,0.2100848853588104,-6.888966633038862,-13.078238352424165,4.608627357436035
3723.098623875,0.0352342724800109,0.1481375396251678,0.1413245797157287,-7.989031527269752,-21.58370046182654,11.054563742197843
3723.118759875,-0.0117250680923461,0.1690284013748169,0.0991446375846862,-3.6076189627191724,-40.55666538756526,21.639476089172405
3723.138895875,0.0964221954345703,0.1509747803211212,0.1169913113117218,-1.1046376017935344,-64.35893163729105,39.023136172629336
3723.159031875,0.2942073345184326,0.0792889595031738,0.090030699968338,-6.58038176396154,-73.9900060314497,50.513498008682234
3723.179168875,0.3073834180831909,0.0234371125698089,-0.0085477530956268,-20.866809428864208,-53.794899063272794,46.735589489233575
3723.199304875,0.0449398159980773,0.0762076377868652,-0.1006254255771637,-30.156740832301043,-39.615013424126744,44.671321176311096
3723.219440875,-0.0620996952056884,0.0875574052333831,-0.1655197441577911,-34.62176558335894,-42.55991460276363,50.02833528662691
3723.239576875,-0.0056599974632263,-0.0132062286138534,-0.2257098257541656,-39.268701151861585,-39.12603484807988,48.98919401159603
3723.259713875,-0.0115779042243957,-0.0217537730932235,-0.2945232987403869,-45.35990911287655,-24.105563141677067,40.688562002224415
3723.279849875,-0.0669146180152893,-0.0024315863847732,-0.3271831274032593,-50.27185095339766,-15.355588845848445,33.538338677206525
3723.299985875,-0.1079474091529846,-0.026636779308319,-0.3114489912986755,-54.43057157031479,-10.527199216838312,27.383470691415113
3723.320121875,-0.1253859400749206,-0.0469430834054946,-0.2986911833286285,-55.53316411094676,-4.643936892435363,21.47212908384546
3723.340257875,-0.1061726212501525,-0.0713768601417541,-0.2728202939033508,-56.644784435594175,1.2971550257319109,17.31619941867706
3723.360394875,-0.0523838996887207,-0.0711714178323745,-0.2392391860485077,-57.53551259127594,6.000647874499521,14.885653345148597
3723.380530875,0.0165213346481323,-0.090571828186512,-0.2189604640007019,-58.02956061350972,9.992826126999432,12.43840095955946
3723.400666875,0.0606119036674499,-0.062219999730587,-0.2014517188072204,-55.934848528251905,6.702616427061514,9.961871180498605
3723.420802875,0.0809394717216491,-0.0730843469500541,-0.1940606534481048,-53.504813613527524,2.721572109548731,7.1610070269741755
3723.440939875,0.0697080492973327,-0.0973694697022438,-0.1741785407066345,-50.77594665874188,-0.9422673393316927,5.495883937421553
3723.461075875,0.0377845168113708,-0.1397198587656021,-0.1628204882144928,-47.39023916267391,1.2960491882182623,2.94212458833627
3723.481211875,-0.025553286075592,-0.1599936038255691,-0.16194748878479,-43.207081672762214,8.47959961351279,-0.21734000485693628
3723.501347875,-0.0877480506896972,-0.1420402824878692,-0.166768729686737,-38.060467625855054,12.388760832642731,-2.802382183671881
3723.521483875,-0.1263341307640075,-0.1238012090325355,-0.193461924791336,-29.845031076830164,3.7762681834678347,-2.491600126111848
3723.541620875,-0.1248462200164794,-0.1675204783678054,-0.1200368702411651,-23.52600635975498,1.258872995514082,-0.7841784587064637
3723.561756875,-0.0841525197029113,-0.1723514646291732,-0.0883654206991195,-20.83408306422383,2.2959418630165374,0.00032792203157328004
3723.581892875,-0.0371651053428649,-0.1501829326152801,-0.0831178873777389,-17.886907139953166,-3.904919640534388,-1.5928679258280454
3723.602028875,-0.0146699547767639,-0.2080301791429519,-0.0649121403694152,-15.523775905500631,-6.288884116533211,-3.48816803356371
3723.622165875,-0.0086947083473205,-0.2125831246376037,-0.0551121830940246,-14.27060499486541,-5.736097102081317,-5.066104202347788
3723.642301875,-0.004784882068634,-0.1988709717988968,-0.0259801149368286,-12.784488322952825,-0.7606901682848388,-5.027694518551584
3723.662437875,0.0037044286727905,-0.2038249373435974,-0.024523377418518,-11.618546797255181,10.233938646389618,-5.358845953711722
3723.682573875,-0.0066680312156677,-0.1655322611331939,-0.0420733094215393,-7.542857392302105,13.640083683344528,-6.207112466778142
3723.702709875,-0.0279578566551208,-0.138118028640747,-0.0518526136875152,-1.1976661097500285,8.628700113055743,-4.926671648244962
3723.722846875,-0.0279918909072875,-0.1399013847112655,-0.036586046218872,29.788419385785836,7.760002870227822,-6.265078923264156
3723.742982875,-0.0322685241699218,-0.1047152727842331,-0.0475358814001083,47.47826652440891,8.297295684256767,-6.994394865701281
3723.763118875,-0.0403610467910766,-0.0852414742112159,-0.0516472905874252,35.15607710030941,9.923416144721386,-7.91591147314108
3723.783254875,-0.0398727655410766,-0.0579479485750198,-0.0346593856811523,31.112375141476136,12.32817593382265,-13.137325019413737
3723.803391875,-0.0357658267021179,-0.0313718356192112,-0.0335054993629455,24.90745000228141,11.227556993704013,-7.653169389591596
3723.8235284166662,-0.0324151515960693,-0.0267108362168073,-0.0394765138626098,18.604684868452548,9.418192217118815,-4.754669270037226
3723.843664416667,-0.0234965085983276,-0.0253977924585342,-0.0488660782575607,19.771340048838315,10.273225385280682,-4.972745325904526
3723.863800416667,-0.0342246294021606,-0.0087403804063797,-0.0569173544645309,21.465579984692027,6.712528262833928,-5.2811137247879
3723.883936416667,-0.0369481444358825,-0.0017935670912265,-0.08113694190979,24.21300227562122,-1.6030196212000192,-5.014522769665319
3723.904073416667,-0.0376741290092468,-0.0229517854750156,-0.055715262889862,26.067851035493828,-3.4599691994642967,-3.3991535691349384
3723.924209416667,-0.0445866584777832,-0.0336970761418342,-0.0558438301086425,25.61883032947687,-0.3008534992417822,-2.8007237861622514
3723.9443454166662,-0.0527812242507934,-0.0105602070689201,-0.0809504836797714,24.867623130870697,1.1445626236479711,-3.026348414758928
3723.964481416667,-0.0656749606132507,-0.0122654438018798,-0.0808755457401275,23.697688416167615,1.1476732954321278,-3.116010327565988
3723.984617416667,-0.0625640153884887,0.0004353895783424,-0.0793049335479736,21.12917511237864,1.5439388911261176,-2.5242635510856815
3724.004754416667,-0.0480971932411193,-0.0028477311134338,-0.0849541872739791,18.089014663057768,2.0597378259068932,-1.4912887427314558
3724.024890416667,-0.0283349752426147,-0.0113874375820159,-0.0927145332098007,14.034346635522699,4.347547359448356,-0.36282053535572345
3724.045026416667,-0.0151172280311584,-0.004208967089653,-0.1055908501148223,9.692525398062246,6.45928426249327,-0.20824504037264546
3724.065162416666,-0.014297068119049,0.0117773935198783,-0.1104095876216888,7.198912525618839,4.844038730011846,-0.016970985516451265
3724.085299416667,-0.0152927041053771,0.0090486705303192,-0.109906792640686,6.298465287211741,1.802064033950046,0.9635998642941956
3724.1054354166663,-0.0077917575836181,0.0119522958993911,-0.104496881365776,5.909321978554161,2.773285707253592,-20.09856813266495
3724.125571416667,0.0155708789825439,0.0168463438749313,-0.0953704565763473,2.320982859275489,4.337767875114196,-39.45809349909979
3724.145707416667,0.0303245186805725,0.0225432515144348,-0.0927311778068542,-3.7252797579262698,2.962858387586209,-28.23747642601475
3724.165843416667,0.0330026149749755,0.0247261375188827,-0.0756358802318573,-2.813796161869675,1.8233733169040534,-11.553514604883475
3724.185980416667,0.0382825136184692,0.0303193628787994,-0.0673560500144958,-4.6831264918082205,2.647327634790031,-7.27286362944497
3724.206116416667,0.0476707220077514,0.0298383235931396,-0.0524921119213104,-4.729870306840711,-0.2851018831336205,-3.78354787076276
3724.2262524166663,0.0701269507408142,0.0081335231661796,-0.0339007377624511,-5.517199789105343,-2.098975221855426,-2.313733954574815
3724.246388416667,0.0915434956550598,-0.0267493724822998,-0.018587052822113,-6.643222932045223,4.29574457258326,-1.6978027159240128
3724.266525416667,0.0905969142913818,-0.0318166837096214,-0.007215678691864,-7.301045237175874,13.866990999277107,-2.4415018013250744
3724.286661416667,0.0399916768074035,-0.0167601034045219,-0.01349338889122,-4.230148448902771,14.552118505403655,-2.961382744872054
3724.306797416667,-0.0178083777427673,-0.020564429461956,-0.0117982923984527,0.16166220569329148,11.649556501956226,-2.7022157831879667
3724.326933416667,-0.0548949837684631,-0.0329414904117584,0.0256336331367492,4.124875213230483,17.582965838043663,-1.634403830772868
3724.3470694166663,-0.0653741955757141,-0.0432270690798759,0.0936478078365325,6.414568300795231,32.14578431293518,-1.351131193393229
3724.3672064166662,-0.0506004095077514,-0.0063020959496498,0.0692362785339355,5.887990838129786,37.276660920758786,-3.7528589608299967
3724.387342416667,-0.0595352053642272,0.0154364630579948,0.0869882702827453,6.977514068881296,40.44878503638074,-6.824004584933618
3724.407478416667,-0.0511524081230163,-0.0115933045744895,0.1022576689720153,5.0402107988255285,50.649287973291734,-9.673148290553257
3724.427614416667,-0.0415186882019043,0.0374333783984184,0.091540902853012,3.9602051896431956,51.37533593716199,-10.889537875936384
3724.447751416667,-0.0277340412139892,0.05465529859066,0.099801480770111,5.661557855759636,43.8510284065778,-10.538845060971624
3724.467887416667,0.0097147226333618,0.0597986131906509,0.1135046482086181,7.970352498764344,32.83819111786812,-9.29380443783927
3724.4880234166662,0.0362775921821594,0.0482015684247016,0.1268745362758636,9.202037058932921,24.913116844592764,-9.323181814406212
3724.508159416667,0.0398604273796081,0.0411664322018623,0.1375644207000732,8.499175183939522,21.36848013700856,-7.032554489958898
3724.528295416667,0.0645780563354492,0.0280700922012329,0.1406642496585846,10.21141954061111,14.376779466953593,-1.8854592897504574
3724.548432416667,0.1086704730987548,0.0379648059606552,0.1602332293987274,12.674370568954618,2.8428543695120823,2.9235594485349736
3724.568568416667,0.1367801427841186,0.0121640861034393,0.1708235442638397,10.460792501377458,-1.7422888140401938,2.1913500164963295
3724.588704416667,0.0850774645805358,0.0456453561782836,0.1782285273075103,10.514585903786955,-3.1423612324879002,1.9830468271649693
3724.608840416666,0.0114237070083618,-0.0049541294574737,0.1769194602966308,13.068455941238621,-7.2267923535932255,5.696458431603446
3724.628976416667,-0.0240095257759094,-0.0046789199113845,0.1841053962707519,14.67412457740993,-5.124291398012559,9.685065524499237
3724.6491134166663,-0.0304099321365356,-0.0476365089416503,0.1831209659576416,13.167660385229585,6.1393393362529025,11.650490040337758
3724.669249416667,-0.0247998833656311,-0.0393866747617721,0.1654880940914154,9.543829564648476,17.99815354243819,12.084605678633409
3724.689385416667,-0.0138782858848571,-0.0266375839710235,0.1565845608711242,6.885747054249602,22.64721248237649,13.114450517462473
3724.709521416667,0.0041741132736206,-0.032034620642662,0.136468768119812,3.5119569180198873,26.171512294105526,13.34151393409826
3724.729657416666,0.0141311287879943,-0.0480720698833465,0.131609708070755,-2.215791680327328,33.91761740712127,12.950156181203454
3724.749794416667,0.0163572430610656,-0.0342231392860412,0.1163639724254608,-8.518386546510648,41.555051727947045,12.09015643711453
3724.7699304166663,0.0004264712333679,-0.0115852952003479,0.097668319940567,-12.36378854154907,41.608890376394214,12.680684581009416
3724.790066416667,-0.0083655714988708,-0.0093618035316467,0.0762146413326263,-14.780985004583425,38.14039058706413,13.815014130140923
3724.810202416667,-0.0110827684402465,0.0016994476318359,0.0512793213129043,-15.29119905728189,31.94909906357495,15.10537875885376
3724.830339291667,-0.020283043384552,0.0070455372333526,0.0338992476463317,-15.568344400580303,23.520155470291115,16.45461810907136
3724.850475291667,-0.0279932022094726,0.0068247318267822,0.0312184691429138,-15.152363639019217,15.13097737072897,17.26443012326868
3724.870611291667,-0.0264614820480346,-0.0248098522424697,0.0401789844036102,-16.011327370839766,13.140294820021836,16.09220819981445
3724.8907472916662,-0.0292329788208007,-0.0380105003714561,0.0414245128631591,-19.078530089311574,18.163370048867478,13.880464602059561
3724.910883291667,-0.0236676931381225,-0.0359498336911201,0.0348057150840759,-23.27924345209018,26.100122227566658,11.367165137924218
3724.9310202916663,-0.0075878500938415,-0.0332060605287551,0.0201572179794311,-27.091584635846733,31.44347109563057,9.410480460291382
3724.951156291667,0.0322968959808349,-0.0273479670286178,0.0065675973892211,-30.441186426923927,33.10281802235835,7.445210139665193
3724.971292291667,0.0650008916854858,-0.0219296663999557,-0.0076021999120712,-32.99124291352449,29.760567369719126,5.110598518623277
3724.991428291667,0.0867226123809814,-0.0506818667054176,-0.0041468143463134,-34.29239936178989,25.085114091174887,2.1152870171427196
3725.011564291666,0.1050074100494384,-0.0727699846029281,0.0034304857254028,-34.888744595174124,22.80157903624982,0.005351898353467277
3725.031701291667,0.1288140416145324,-0.0914246886968612,0.0027592927217483,-34.20795274077633,23.985206280913474,-2.174904433297087
3725.0518372916663,0.1308168172836303,-0.0773213431239128,-0.0068045854568481,-31.922775487789178,22.49692082966419,-4.036405168868384
3725.071973291667,0.1497262120246887,-0.06500755995512,-0.0076726675033569,-28.51280775254358,13.399371737691723,-2.468354895938063
3725.092109291667,0.2625347971916199,-0.0626776739954948,-0.0095055997371673,-24.847094872345256,0.04117294882703959,-0.11304997661767402
3725.112245291667,0.326330304145813,-0.068155899643898,-0.009087324142456,-20.72233465174799,-11.35757502316821,-2.207067633807469
3725.132382291667,0.1894471645355224,-0.0797626003623008,-0.0179589688777923,-15.76563736213561,-18.742817226814168,-8.120594706144146
3725.152518291667,-0.0224454402923584,-0.0566584430634975,-0.0396724939346313,-8.123955773415048,-28.380629895693232,-11.254593206258079
3725.1726542916663,-0.1619429588317871,-0.0385216735303401,-0.0493053197860717,3.0866961369160637,-40.236645322410425,-13.812934556829504
3725.192790291667,-0.2390546202659607,-0.0401807613670825,-0.0336139500141143,13.431757465301835,-46.93781399186179,-15.350355800627113
3725.212926291667,-0.2464971542358398,-0.0340289212763309,-0.016213834285736,20.33470786348873,-45.24039956626282,-16.98005167298291
3725.233063291667,-0.2221137285232544,-0.0429706871509552,0.0083747804164886,24.56984211284669,-38.96720641212141,-18.829907559767634
3725.253199291667,-0.1392691135406494,-0.0558345839381217,0.0524806380271911,25.840598399650293,-26.70937274110088,-19.884824897705045
3725.273335291667,-0.0105319619178771,-0.0756151229143142,0.0888671875,24.39120703202785,-7.811084295483539,-21.342565779505662
3725.2934712916663,0.0846386551856994,-0.0534026697278022,0.1046838760375976,21.60083142225617,10.335393294955253,-24.597261134618265
3725.313607291667,0.117631196975708,-0.0138966478407382,0.0875868201255798,22.105213563780545,18.60234532154692,-27.961128860896878
3725.333744291667,0.1221864223480224,0.055436722934246,0.0777850449085235,27.753887030471837,13.35596094644984,-29.64213271061169
3725.353880291667,0.1117380261421203,0.0937533900141716,0.0621280074119567,39.61916525272511,-3.5928763161720667,-27.295455264469837
3725.374016291667,0.1028072834014892,0.099536582827568,0.0632558166980743,52.300344857064296,-17.35732342624061,-23.37560555071505
3725.394152291667,0.0432119369506835,0.1201273277401924,0.0496984422206878,62.75155763739835,-24.044151930094415,-19.897670633615405
3725.414289291667,-0.0236489176750183,0.1530481874942779,0.0249635875225067,70.5539831163029,-30.825997989472853,-16.328391597480874
3725.4344252916662,-0.0657235980033874,0.1768039762973785,0.0180909931659698,75.7837000920218,-38.67824983154691,-13.175259888908641
3725.454561291667,-0.0778756737709045,0.1781092882156372,0.0298413932323455,78.4285033762009,-45.96456615887945,-9.30241486253962
3725.474697291667,-0.0791671872138977,0.1613574177026748,0.0524072349071502,74.08793355133491,-44.198348510166596,-6.013394747633072
3725.494833291667,-0.0704458951950073,0.1553865671157837,0.0550455749034881,63.73102398590467,-34.63016228493885,-4.422634135364234
3725.514970291667,-0.0401804447174072,0.143375962972641,0.0416885018348693,49.515076748605225,-19.02268938837679,-6.109809730532589
3725.535106291667,-0.0235813856124877,0.1614721119403839,0.0256934463977813,35.34690741010395,-6.259140922016115,-9.494921038022142
3725.555242291666,-0.0365201234817504,0.1853126287460327,0.0188694298267364,24.10776562819512,-1.7333053044744418,-9.86222373834238
3725.5753782916663,-0.0531550049781799,0.1787327527999878,0.018219381570816,13.149995092721767,1.095047622325751,-8.415363208878546
3725.595514291667,-0.07569420337677,0.1945160627365112,0.0095972418785095,5.030778527190627,0.49865508394830727,-4.315602883050218
3725.615651291667,-0.1087047457695007,0.1912588775157928,-0.0089839994907379,-2.71066725781246,-3.101291772734527,2.1203822464165967
3725.635787291667,-0.1088663339614868,0.1857289373874664,-0.019682765007019,-10.72343727641698,-4.69458965034022,8.01626866138605
3725.655923291667,-0.1096975207328796,0.1647079586982727,-0.0355695784091949,-17.904993279842696,-7.143867031130213,12.708489836921899
3725.676059291667,-0.1144168376922607,0.1550001502037048,-0.0300406813621521,-25.880759239424034,-12.606251359881071,17.139947560771418
3725.6961952916663,-0.1237547397613525,0.1419259309768676,-0.0165449082851409,-34.20740327378322,-19.397149349669007,22.78556225146673
3725.716331291667,-0.1017085909843444,0.1054398417472839,-0.0152203440666198,-41.9513011791528,-22.567936769623742,27.562320550392627
3725.736468291667,-0.0961157083511352,0.0762818157672882,-0.0025053620338439,-50.31014046292776,-22.553159063180317,31.98883000444397
3725.756604291667,-0.0752662420272827,0.0463167130947113,-0.002057135105133,-59.34656913273013,-18.965975983830674,36.24760420372368
3725.776740291667,-0.0348676443099975,0.0200842767953872,-0.017638087272644,-67.90995245271176,-14.232099183703184,40.94719158407685
3725.796876291667,0.0308341979980468,0.0041403472423553,-0.049870878458023,-72.87238248173438,-12.907151930391336,44.368407108797925
3725.817012666667,0.0856544375419616,-0.020750805735588,-0.0779223293066024,-74.98180018192669,-14.162907131711933,45.90951705908566
3725.837149666667,0.1488605737686157,-0.0596311017870903,-0.083550214767456,-75.55604391209876,-13.298485660595105,45.0969666829522
3725.857285666667,0.1763733625411987,-0.0951477289199829,-0.084962248802185,-73.23023009227212,-10.829787468664875,41.97286628370023
3725.877421666667,0.1745554804801941,-0.1280875205993652,-0.0798462033271789,-68.27880925146363,-6.965396879869701,40.55178790721499
3725.897557666666,0.2736449241638183,-0.1458860039710998,-0.0800025314092636,-64.15766421345283,2.708951141781313,41.11544450814364
3725.9176936666663,0.359440267086029,-0.1481811255216598,-0.1070032119750976,-57.687804750397675,16.115829521304192,32.77657115408985
3725.9378306666663,0.156367540359497,-0.0852226763963699,-0.1203809529542923,-46.99029572872618,18.166707171277352,20.101710572205178
3725.957966666667,-0.1099653244018554,-0.0527987256646156,-0.0842742323875427,-33.8398057559402,9.826493310865914,13.702341406684582
3725.978102666667,-0.2017675638198852,-0.0635114088654518,-0.0720855593681335,-20.11603145392309,5.9482861366824125,11.72214762180559
3725.998238666667,-0.1941238045692443,-0.0539455860853195,-0.0489969849586486,-7.831653414684991,8.50571855496085,8.507957139953959
3726.018374666667,-0.1384623646736145,-0.0802609175443649,-0.0249667912721633,-0.3761174724994709,17.798487155793197,4.875387479239635
3726.038511666667,-0.0176950097084045,-0.110401302576065,-0.014113962650299,3.005113120947134,31.547182191496148,0.13505227832339983
3726.0586476666663,0.1064554452896118,-0.1438760757446289,-0.0032643675804138,4.949988074527822,45.776112114157996,-5.957807334431919
3726.078783666667,0.2047899961471557,-0.1767134517431259,0.0171234160661697,6.601377407070141,58.812437306616516,-13.179572884684632
3726.098919666667,0.2433899641036987,-0.1987320780754089,0.0497712641954422,8.919144692408477,69.37506322252318,-19.85601179577472
3726.119055666667,0.2378250360488891,-0.1862709820270538,0.0665383487939834,14.324916305276735,74.31055249059781,-25.517324883372794
3726.139192666667,0.1870508790016174,-0.1665635108947754,0.0769683122634887,22.668936205258788,72.55772052082179,-30.212253220572194
3726.159328666667,0.0999975800514221,-0.1090375706553459,0.0765106081962585,32.91717602335107,64.58105896964881,-33.00576569462024
3726.1794646666663,0.033334195613861,-0.0479331240057945,0.0548338890075683,44.133806755266455,47.23262427915387,-33.401725891713596
3726.199600666667,-0.0136959552764892,0.0047900229692459,0.0564614236354827,54.58926733697725,24.978224136054195,-33.66262210957842
3726.219736666667,-0.0290586948394775,0.0333577953279018,0.0727604180574417,62.1590596439668,6.778056866507853,-34.17049032829311
3726.239873666667,-0.0377635359764099,0.052950881421566,0.0832719206809997,68.85670057771509,-11.536940183954414,-33.54526920389773
3726.260009666667,-0.038039743900299,0.042342834174633,0.1170111894607544,73.11871029993723,-22.429464002381394,-32.10870711174536
3726.280145666667,-0.02434903383255,0.0299430787563323,0.1493687331676483,73.74751393345451,-21.609044989920534,-31.874662256126385
3726.3002816666663,0.0013089179992675,0.045576736330986,0.1759544909000396,72.02323329894882,-14.515405233473189,-32.911401366560966
3726.320417666667,0.0582451224327087,0.0584255158901214,0.1960019469261169,67.84776450744454,-6.637066042588913,-32.584892736497295
3726.340554666667,0.1576088070869445,0.0821887850761413,0.2057145833969116,61.060027542087084,1.382018278818009,-32.17210857278161
3726.360690666667,0.2316024303436279,0.109843760728836,0.2095343470573425,53.62061459327529,5.526762894285753,-33.17468141103106
3726.380826666667,0.2236204743385315,0.1414433717727661,0.2176829874515533,48.11049247880304,4.825229996045266,-35.10513665853452
3726.400962666667,0.1535475850105285,0.1632114946842193,0.226201981306076,45.76399683966237,-1.0129342343077496,-33.171316008659346
3726.4210986666662,0.0923311710357666,0.1691850423812866,0.2121590375900268,46.99629561595007,-6.883004853965247,-29.74040736692487
3726.441234666667,0.0252301096916198,0.1762512028217315,0.20311039686203,51.02821095955568,-11.705403449713003,-25.76395707833896
3726.4613716666663,-0.0004733204841613,0.2059760093688964,0.2134049236774444,55.10977186341517,-19.466246981620827,-17.715884089628275
3726.481507666667,0.1739965081214904,0.2099824249744415,0.2426166236400604,52.65822852948627,-26.558327414014826,-6.113046907908881
3726.501643666667,0.1724922060966491,0.1736084520816803,0.2125524878501892,47.11801489124223,-14.91827096281213,-16.77800899239088
3726.521779666667,-0.1093864440917968,0.259393572807312,0.2440924048423767,42.95091204720638,-9.044076017026725,-15.353262756134711
3726.5419156666662,-0.0150238275527954,0.2659386098384857,0.2400857210159301,37.74283556750806,-19.165423450120045,-1.0534950201162019
3726.562052666667,0.117637038230896,0.2538135647773742,0.218140959739685,29.751520955059974,-23.92211843733989,7.258693965319907
3726.5821886666663,0.1412783861160278,0.2723807692527771,0.2177731394767761,16.464372322064946,-22.24409277198589,8.881481294375249
3726.602324666667,0.0876762270927429,0.2693262100219726,0.1954106986522674,0.605531854752428,-23.885075489569374,10.783011050632041
3726.622460666667,0.0396782755851745,0.2408728599548339,0.1787779927253723,-13.442680858017475,-30.11189308250195,15.1585646411867
3726.642596666667,0.0202752351760864,0.1989863514900207,0.175446480512619,-24.30145035221578,-35.159615671018685,18.83777853232189
3726.662733666667,0.0028893947601318,0.1552575528621673,0.1815000474452972,-35.35075057892403,-32.20824307186376,19.440037329625426
3726.682869666667,-0.012353777885437,0.137922316789627,0.1702960431575775,-48.08703873439608,-25.327368397228867,18.837816308231936
3726.7030056666663,-0.0222131013870239,0.1123453974723815,0.1703892052173614,-59.11861909424232,-21.736896578519094,19.87650832540382
3726.723141666667,-0.0319689512252807,0.0896942615509033,0.1555572152137756,-68.52577189194946,-20.536186442517845,21.844180301578575
3726.743277666667,-0.0267570614814758,0.0727380514144897,0.1346107721328735,-75.28031251920825,-23.6281363733319,24.69989729551827
3726.763413666667,-0.0186991095542907,0.0473838299512863,0.1102759540081024,-81.77628474477414,-27.2893198182949,26.283398496956067
3726.783550666667,0.0113480687141418,0.0149658620357513,0.0943038165569305,-87.99209594059514,-30.73550664837086,26.17033443713197
3726.803686666667,0.0455653667449951,-0.0133271068334579,0.0869370400905609,-92.8103340453255,-34.96053120738907,24.71968956703776
3726.82382175,0.1007561087608337,-0.0291531085968017,0.0950978398323059,-95.16776598540542,-42.28421848900439,23.3027848162898
3726.84395775,0.1563190817832946,-0.0743580237030983,0.1127459406852722,-95.97949590623926,-46.56529505128475,20.84596297097292
3726.86409375,0.2028919458389282,-0.0971342846751213,0.1171866655349731,-93.98012033726144,-52.47576309957651,18.79003930450125
3726.88423075,0.2308537364006042,-0.1039382368326187,0.1482441127300262,-90.22486277638353,-61.60708945582911,18.766740376770485
3726.90436675,0.2180727124214172,-0.1142926961183548,0.1396122872829437,-83.89213183670157,-70.60242037022704,19.174901380037568
3726.92450275,0.1324494481086731,-0.0887035280466079,0.1357322633266449,-75.41202114425863,-81.87644668076075,20.438433170669867
3726.94463875,0.0500991344451904,-0.0659466162323951,0.0981056094169616,-63.679275750194144,-96.76018874776702,22.97058536753127
3726.96477475,0.022312581539154,-0.0403171479701995,0.0494951605796813,-49.30642432414874,-116.87156959173137,23.50522503713748
3726.98491175,0.0158710479736328,-0.0154732353985309,0.0200052857398986,-33.4699969864043,-142.83497214713492,19.80364712422258
3727.00504775,-0.0125036835670471,-0.044060580432415,0.0274279713630676,-19.242236825602753,-167.84569663649052,14.377077597087151
3727.025183750001,-0.0486601591110229,-0.1137190386652946,0.0421820878982543,-9.334239585100601,-178.41075275549656,11.815792321581853
3727.04531975,-0.0465002059936523,-0.1918649673461914,-0.0121914595365524,-4.7468498075599275,-164.9908077715196,10.180308500290636
3727.06545575,-0.055766224861145,-0.1995464116334915,-0.052035629749298,0.8579965827212099,-150.17184429615327,6.791800109725443
3727.08559175,-0.0454333424568176,-0.2321425974369049,-0.0399225950241088,5.509031792817964,-135.4751317678847,4.78727136563748
3727.10572875,-0.019723355770111,-0.2982055246829986,-0.0599417388439178,7.379409320690389,-107.11263061122906,5.872146633650033
3727.12586475,0.009781002998352,-0.3345451056957245,-0.0916871726512909,6.368808611315013,-64.13048249333002,8.916208326198927
3727.14600075,0.0460995435714721,-0.2788453996181488,-0.1440688222646713,6.932400469108635,-26.510000721998495,10.360500049573318
3727.16613675,0.0661730170249939,-0.2440234571695327,-0.1914305090904235,9.02160747365457,-1.0675678419488577,9.565146116623424
3727.18627275,0.0703025460243225,-0.2026664316654205,-0.2263720631599426,10.870766046535142,17.538971471866205,8.498262557616698
3727.20640975,0.0636932849884033,-0.1529968678951263,-0.2600752115249634,12.608874772390788,30.33991980563684,6.126253540496407
3727.22654575,0.0141348838806152,-0.1076008304953575,-0.3006437718868255,14.79075101230347,35.80940425684389,2.5581111322310335
3727.24668175,-0.043186604976654,-0.0887965783476829,-0.2948063611984253,16.9432374513116,36.83024215560522,-1.7794143506797866
3727.26681775,-0.0996983051300048,-0.0907139778137207,-0.2645355761051178,18.251066061656786,38.36836674215789,-5.057665582108939
3727.28695375,-0.121298611164093,-0.1182192265987396,-0.2169839143753051,17.595634688501317,46.301697975297884,-6.578485050432903
3727.30708975,-0.1256091594696045,-0.1359009891748428,-0.1669990420341491,14.261756625538341,61.185407484289556,-6.854829859581457
3727.32722675,-0.1110444068908691,-0.1412117779254913,-0.1378543078899383,8.785075986877933,77.202332786689,-6.358358199238978
3727.34736275,-0.0831843018531799,-0.118672102689743,-0.1213489025831222,3.7666140015843066,86.68031504856799,-5.781045148915354
3727.36749875,-0.0262075066566467,-0.1302034258842468,-0.094556838274002,-1.7363333788617208,90.37997511494922,-2.274477121455476
3727.38763475,0.0105717182159423,-0.1523549407720565,-0.1315695345401764,-6.50155669077353,97.91239542462762,-4.810988673816752
3727.40777075,-0.1718899011611938,-0.1155301108956337,-0.1026935428380966,-4.312586746279123,95.2204116881191,-7.136949027157158
3727.42790775,-0.1932755708694458,-0.1393678337335586,-0.0645392537117004,0.8643163899924755,85.94783565155097,-3.505654151265958
3727.44804375,-0.0972177982330322,-0.2015843391418457,-0.0444810688495636,4.703111130639925,87.4266575063885,-0.14414184155526755
3727.46817975,-0.0357499122619628,-0.1888049393892288,-0.0229169577360153,5.749184341858271,98.56010658785266,0.8541414197047459
3727.48831575,0.0439676642417907,-0.163719967007637,-0.0349478721618652,5.637839523985683,108.05368558450397,-1.8003291039271119
3727.50845175,0.0658731460571289,-0.1286020278930664,-0.0325442403554916,9.332577476965314,106.72039390309465,-8.506455110234157
3727.52858775,0.0504569411277771,-0.1051456555724144,0.0031628012657165,17.364659246124564,99.14613354200128,-14.362859198593014
3727.54872475,0.0586575269699096,-0.0902317762374877,0.0389643311500549,27.11992326603444,94.13426330800974,-18.286130204457862
3727.56886075,0.0923048853874206,-0.0442034155130386,0.0757393836975097,36.178264915201304,91.74547769423356,-20.972514559789346
3727.58899675,0.1211742162704467,0.0207232162356376,0.0887485444545745,46.140669884839966,85.13115346165279,-23.944060278068235
3727.60913275,0.1183364987373352,0.0932435616850853,0.0986192822456359,58.238766379630476,72.87671784551932,-26.430679737533325
3727.62926875,0.0868074297904968,0.1146625205874443,0.1040664911270141,69.4493264272341,59.844726686915806,-26.15544798191536
3727.64940575,0.0773825645446777,0.1536830961704254,0.134097158908844,77.92446157470833,50.36242821044539,-23.933265809719728
3727.66954175,0.0860819220542907,0.1850309371948242,0.1398632526397705,84.74336410723811,41.77783192803375,-21.3557593815068
3727.68967775,0.0891690850257873,0.2040663808584213,0.1465726494789123,91.40082744973333,32.26759340930414,-18.231087432053528
3727.70981375,0.1133096814155578,0.2052050977945327,0.173167884349823,97.45120677655797,24.013725921135176,-13.417325717042416
3727.72994975,0.1291500926017761,0.2020171880722046,0.1971702575683593,101.76957346920439,22.413306101815067,-9.673422142791566
3727.75008575,0.096108078956604,0.2244608998298645,0.2049618661403656,102.70355686632664,25.20612464752503,-5.310340416701109
3727.77022275,0.0867858529090881,0.2515705823898315,0.1802422702312469,99.38848645945004,29.1451383008436,-0.8132276539214445
3727.790358750001,0.0885326862335205,0.2776588797569275,0.1543788611888885,94.24365501047625,29.375866632592107,2.6034432785856154
3727.81049475,0.0814247131347656,0.2909279763698578,0.1372332274913787,87.18560975969609,26.500143442987678,6.02296462058689
3727.8306315,0.0543508529663085,0.2884346544742584,0.131298691034317,78.49673691079708,24.48694084285563,8.507826305036303
3727.8507675,0.0011884570121765,0.2706620395183563,0.1240853071212768,68.0664565928371,27.14786088033776,9.836972399008914
3727.8709035,-0.024109661579132,0.2548903226852417,0.1179125308990478,55.13906677456575,36.28531508888955,9.321584659515736
3727.8910405,-0.0040590763092041,0.2470550835132599,0.105540245771408,41.24747722862736,47.537886935473495,6.692144784137355
3727.9111765,0.0204975008964538,0.2455358505249023,0.1112093031406402,27.6998633566663,59.78642690812421,2.1257325555900763
3727.9313125,0.0118887424468994,0.2502764165401459,0.1108337342739105,14.51309771073781,70.06735274979192,-1.7176713326620074
3727.9514485,0.0061606168746948,0.2613352835178375,0.0988680869340896,2.1504878656239512,76.03032796126143,-2.503862566425852
3727.9715845,-0.0236287117004394,0.2642792761325836,0.0874145925045013,-9.48424974987958,79.25453593475993,-1.9506655790173966
3727.9917215,-0.0468963384628295,0.2821229696273803,0.0844194293022155,-20.36178441765699,74.70268532369815,3.3145024424285907
3728.0118575,-0.0448753237724304,0.2700939774513244,0.0752895474433898,-32.496553936537076,65.90779370325279,11.000433314546143
3728.0319935,-0.000324010848999,0.2361857891082763,0.0643523335456848,-46.95018409182623,60.79347844780614,16.72098197767866
3728.0521295,0.0477991700172424,0.207423597574234,0.0634590089321136,-62.22427810386204,56.313505972676836,21.303237673869546
3728.0722655,0.1017112135887146,0.1780607104301452,0.0788943767547607,-77.68134898686495,50.37527287708059,26.875057561855442
3728.0924015,0.159107506275177,0.1205159723758697,0.0955414772033691,-93.63134069812062,48.35074741527805,30.697438404553168
3728.1125385,0.1832357048988342,0.0650995075702667,0.1019536554813385,-108.4686568506811,51.58735465059081,33.30929872570749
3728.1326745,0.1732532978057861,0.0167194604873657,0.0977150797843933,-120.35599245845079,57.558546365881114,36.397289841821845
3728.1528105,0.1485213637351989,-0.0161034911870956,0.0732550173997879,-127.63092397748261,63.29528775581039,40.997587676112346
3728.1729465,0.1196420192718505,-0.0526749044656753,0.0316827297210693,-127.89050516931519,64.39268308137258,46.200416671288025
3728.1930825,0.075480580329895,-0.0704819709062576,-0.0182347744703292,-122.9008773609225,61.12569799312695,50.64504470966611
3728.2132185,0.049616515636444,-0.0952116772532463,-0.0602129101753234,-114.65694238395692,56.303374986188004,53.641897394854254
3728.2333555,0.0516525506973266,-0.1218546107411384,-0.1101997941732406,-105.12942769600681,52.773667931558066,52.627416898591406
3728.2534915,0.0528070330619812,-0.1365630328655243,-0.1224130988121032,-94.84892644274538,49.53333745162567,48.242226314369674
3728.2736275,0.0549038648605346,-0.1604514420032501,-0.1212533637881279,-85.28358864478832,51.332546850083105,41.68826336342306
3728.2937635,0.0595722198486328,-0.1720231771469116,-0.1175364851951599,-76.60697316494635,56.81870686440007,35.21219123021595
3728.3138995,0.0763559341430664,-0.1397069692611694,-0.1117697283625602,-67.53998494150171,60.22209029074759,28.735748956087548
3728.3340365,0.0942197442054748,-0.1237754523754119,-0.1215593740344047,-55.81836766169754,56.438618690820874,20.473497217600567
3728.3541725,0.1008539795875549,-0.1283396184444427,-0.1504217386245727,-43.17839363483309,45.13108139868649,11.098265316378786
3728.3743085,0.1101041436195373,-0.129228413105011,-0.1529610157012939,-30.24099629186301,32.84066760816984,0.6815797004435353
3728.3944445,0.1030473709106445,-0.1145627722144126,-0.1555261611938476,-15.93263587889937,16.540913648934463,-11.275265297125259
3728.4145805,0.0822349190711975,-0.1140633076429367,-0.1451051235198974,-0.011711154265636736,-2.257287794552809,-24.351859977439716
3728.4347165,0.0578334331512451,-0.0986364334821701,-0.1114668250083923,16.553431027216448,-21.091394022126053,-35.00974896433462
3728.4548535,0.046880304813385,-0.095365934073925,-0.0689599066972732,32.56847012136434,-35.21632175455878,-44.02069838810263
3728.4749895,0.0369324684143066,-0.0856091305613517,-0.0230116099119186,45.81677372070014,-43.83251490559843,-51.1182521515515
3728.4951255,0.04972505569458,-0.0706453472375869,0.0177924036979675,56.808010570447706,-50.253024079972164,-56.091922581001086
3728.5152615,0.077722430229187,-0.0517591461539268,0.0584877133369445,66.20573197383413,-55.76654349975598,-59.46631373251634
3728.5353975,0.091636061668396,-0.0274267233908176,0.0950340777635574,73.8205849015078,-62.657746296955,-61.078725502967046
3728.5555335,0.0917263031005859,-0.0111112147569656,0.1225095391273498,79.62972534679379,-69.290336217,-60.64381285996561
3728.5756705,0.0697889328002929,0.0097256451845169,0.1415449380874633,83.78922583621755,-76.23821807341002,-57.72455438259598
3728.5958065,0.0533863306045532,0.0343170911073684,0.1601886749267578,86.97364712508386,-85.95535978970261,-52.663239199032574
3728.6159425,0.0377196669578552,0.0368947684764862,0.1813832819461822,89.47916264017533,-94.5783445623519,-46.43739070180786
3728.6360785,0.0030586719512939,0.0418102443218231,0.1921721696853637,90.36854726631343,-99.547615449044,-39.70541898658411
3728.6562145,-0.0181807875633239,0.0430476367473602,0.2140452265739441,90.0142296419225,-101.28989921577798,-32.25421133257669
3728.6763515,-0.0114071369171142,0.0320273488759994,0.2309883832931518,88.25415608599103,-99.42453296330314,-24.71236153653038
3728.6964875,0.0193696618080139,0.0138512253761291,0.2369846105575561,83.81098044842625,-90.70116645441715,-18.26029822145756
3728.7166235,0.0660841464996337,0.0055741667747497,0.2279504835605621,75.7473023687231,-71.32437370219975,-16.08980954459369
3728.7367595,0.0983859896659851,0.023168921470642,0.1776285469532013,65.81983887262597,-45.95733666604218,-19.577658443604662
3728.7568955,0.0745167136192321,0.0892188549041748,0.1228759884834289,59.17710972719057,-30.603763609818913,-23.576852873651433
3728.7770315,0.0435225367546081,0.1690647900104522,0.0795549154281616,58.150828600598814,-28.224219187346478,-23.91923238619711
3728.7971685,0.0224483609199523,0.2343864440917968,0.0629265904426574,60.0206322844409,-32.59833727397776,-20.006892128759546
3728.8173051666663,0.0398733615875244,0.269205093383789,0.0500422120094299,60.21060955376285,-39.13495784858867,-12.66997803495542
3728.837441166667,0.0768981575965881,0.2832813858985901,0.0206184685230255,56.09881888955819,-42.54942336552858,-5.9322331834238184
3728.857577166667,0.1209756135940551,0.3230195045471191,0.0031062960624694,46.61177726524386,-44.310062703090836,2.203233103924873
3728.877713166667,0.2079803943634033,0.3581045866012573,0.0167387127876281,29.507732713305757,-48.40468436771772,13.541514029013513
3728.897849166666,0.2654389142990112,0.3465217351913452,-0.0051327645778656,4.459975200487065,-53.502293678548085,22.99717443901912
3728.917986166667,0.2335375547409057,0.2823167741298675,-0.0467751920223236,-29.45204240671071,-48.64252415257653,24.599940396568343
3728.9381221666663,0.1017666459083557,0.2618994116783142,-0.1246969103813171,-64.12523867963654,-33.84574210047617,17.678556369053666
3728.958258166667,-0.0879728198051452,0.2187072038650512,-0.1724824011325836,-88.2004382399094,-22.57996821045225,10.090741690298444
3728.978394166667,-0.2204519510269165,0.1714056134223938,-0.1933924555778503,-101.65820677262244,-22.326889242334857,8.982883528532426
3728.998530166667,-0.2620234489440918,0.1228717863559722,-0.1904653012752533,-111.11157165448321,-23.06710343497045,10.611366730476846
3729.018666166667,-0.2551614046096802,0.0682065933942794,-0.1953567564487457,-115.2045396606618,-24.006468010379223,12.146071817588222
3729.038803166667,-0.2085796594619751,-0.0400622338056564,-0.1476775407791137,-125.69474101567906,-12.65276339987551,11.590146027741355
3729.0589391666663,-0.1622563004493713,-0.0045734643936157,-0.0954465568065643,-135.7462556614812,-5.940400530955969,12.619380289388715
3729.079075166667,-0.0648179650306701,-0.1088372319936752,-0.0435423254966735,-143.07807958611227,-1.7434065644643226,17.07655189802537
3729.099211166667,0.056462287902832,-0.0921319872140884,0.0050752162933349,-146.8704736778985,-7.524312928485699,21.775774266131975
3729.119347166667,0.1497604250907898,-0.1423207819461822,-0.0010223984718322,-142.0734950703589,-20.518854459422897,23.340400261039917
3729.139484166667,0.2189041972160339,-0.2198415994644165,-0.0083937644958496,-131.14209814522445,-34.083024719195265,23.58979360753537
3729.159620166667,0.2175511121749878,-0.2061311900615692,0.00581955909729,-115.10760411955965,-50.926486751685474,22.596188393374206
3729.1797561666663,0.1832680702209472,-0.1856968700885772,9.913742542266846e-05,-92.65162634787889,-71.55377515539243,17.669519854232618
3729.199892166667,0.1026248335838317,-0.1634288728237152,-0.044154405593872,-66.54034621054139,-96.15976270734876,11.063503679194042
3729.220028166667,0.0061790347099304,-0.095386266708374,-0.0530220121145248,-42.16086307138034,-126.98235682944272,3.5105005375939413
3729.240164166667,-0.0531390905380249,-0.0531426966190338,-0.0324742197990417,-18.731744648360582,-160.95087032367275,-4.621462248309172
3729.260301166667,-0.0759021043777465,-0.0127694457769393,-0.0059132128953933,3.712333010572877,-197.81662090775427,-11.567087098705287
3729.280437166667,-0.0737806558609008,-0.0192125290632247,0.0311222672462463,22.494052309184642,-226.5770430762032,-16.294455965704913
3729.3005731666663,-0.053189218044281,-0.0658138692378997,0.0521016716957092,37.87526620312454,-242.56689814319543,-19.63351821387036
3729.320709166667,-0.060827612876892,-0.1088007390499115,0.0953294932842254,49.8202231993786,-245.09120711988288,-20.578994339579282
3729.340845166667,-0.0385175347328186,-0.1883819848299026,0.0813814103603363,55.90166648779746,-224.30521683333922,-17.68126210056451
3729.360981166667,-0.0231397151947021,-0.2171321958303451,0.0368667244911193,59.139423261518374,-192.73824001709983,-14.267004855768306
3729.381118166667,-0.0367927551269531,-0.2247549593448639,0.0145445764064788,60.47400578976971,-158.58921544068352,-10.121019688713773
3729.401254166667,-0.0253402590751647,-0.2277617454528808,-0.0355387926101684,58.720613886525875,-121.20926375241652,-4.553921307687148
3729.4213901666662,-0.0088992714881896,-0.2033844590187072,-0.1048931777477264,55.821841368963376,-85.99749142851607,-1.3627704861576717
3729.441526166667,-0.0088312029838562,-0.1485721319913864,-0.1444951295852661,54.257640716255615,-59.727149223428455,-2.174225004660002
3729.461662166667,-0.0417125225067138,-0.1165582612156868,-0.1623284518718719,53.68801591963602,-40.693672724985674,-4.691240650436157
3729.481799166667,-0.0769979953765869,-0.0981357619166374,-0.1521906554698944,52.23541549607754,-22.657168675904416,-6.763899600417744
3729.501935166667,-0.084317922592163,-0.0837896317243576,-0.1416523158550262,50.0785813103191,-2.0037324466031237,-9.095485981725204
3729.522071166667,-0.0843451023101806,-0.0336588993668556,-0.1284579038619995,48.121033528152246,13.843922032876321,-11.27116832179027
3729.5422071666662,-0.0684619545936584,0.0066103413701057,-0.0831385552883148,46.85275110868172,22.75379997571747,-11.541332866589471
3729.562343166667,-0.0439350605010986,0.0040354430675506,-0.0404086112976074,44.68821328934243,32.102263072687265,-10.386663698309206
3729.582479166667,-0.0555405616760253,-0.0092575475573539,0.0071370601654052,41.26550483704348,47.26644251667267,-8.560152144453781
3729.602616166667,-0.0671236515045166,-0.0073334127664566,0.0435901284217834,37.953088624635754,64.18633694174218,-5.818559764158238
3729.622752166667,-0.0488861799240112,0.0121596455574035,0.063774287700653,36.40381659537746,72.40285961856188,-0.8146039761300017
3729.642888166667,0.0284828543663024,0.0248865485191345,0.0677996277809143,37.02940363777394,70.59737076123014,5.416718327091985
3729.663024166666,0.1049721837043762,0.0320236831903457,0.0632126331329345,37.80245546157612,63.65672828913489,12.24000924979407
3729.6831601666663,0.2013291716575622,0.0238819271326065,0.0104587972164154,39.25517087347572,50.51175630043048,15.42180721404236
3729.703296166667,0.119056761264801,0.0004282146692276,0.0040023922920227,42.191339052677,38.11211155947802,9.94653895474471
3729.723433166667,-0.027118980884552,-0.0829046219587326,0.0392031669616699,44.45702979244803,34.92163243262496,4.229772145684052
3729.743569166667,-0.0628678202629089,-0.0472082644701004,0.0665799975395202,48.416107970436784,24.683063335672273,3.329281423545183
3729.763705166667,-0.0198490023612976,-0.0127738267183303,0.0752243995666503,51.198705462446625,5.67457877169204,7.541377002703342
3729.783841166667,0.0319406986236572,-0.0249952971935272,0.076607197523117,50.182166567009205,-14.523040949099197,15.824361000510123
3729.8039771666663,0.0949856638908386,-0.0796582400798797,0.0797190964221954,41.61227227412301,-19.685242557076776,20.23756957423899
3729.824113166667,0.0527219772338867,-0.0944871008396148,0.0573920607566833,33.81436082004612,-19.52698584256467,18.685481450518182
3729.844249166667,-0.0641736984252929,-0.0816188752651214,0.0276468098163604,30.82498054842855,-25.69637166273253,19.36736613235084
3729.864385166667,-0.1365536451339721,-0.0438859164714813,0.0098477602005004,30.724920338869133,-37.811300177044416,24.335272535606833
3729.884521166666,-0.1525657176971435,-0.0379150211811065,0.0040466338396072,29.560866857888257,-48.69433493897617,29.975563449080767
3729.9046571666663,-0.1518723964691162,-0.0176363587379455,0.0049905478954315,25.202712044254483,-55.062204154627636,34.20429872129631
3729.924793166667,-0.1689490675926208,-0.0150396525859832,-0.0031126141548156,18.74140280669412,-57.26814267555369,36.780751852030136
3729.944930166667,-0.180796205997467,-0.008243441581726,-0.0097574591636657,10.749273198318576,-56.6040615433721,38.02124818268311
3729.965066166667,-0.1865677833557129,-0.0366321504116058,-0.0270618200302124,-0.11535440216849935,-45.53088845294866,34.265369469483176
3729.985202166667,-0.1755140423774719,-0.0383531749248504,-0.0407691597938537,-13.459404705721134,-29.60358031628374,27.57766196141702
3730.005338166667,-0.1424025297164917,-0.0405042469501495,-0.0604793429374694,-27.055102918169105,-15.99527197605397,19.780499960578624
3730.0254741666663,-0.1079086661338806,-0.0343501567840576,-0.0623779296875,-39.208771647559715,-6.7247095167587645,13.024919509685873
3730.045610166667,-0.0566409826278686,-0.0397194325923919,-0.0616203546524047,-49.71502041118434,1.0401758121048488,7.138755660076868
3730.065747166667,-0.0117307901382446,-0.0352068543434143,-0.0569857954978942,-58.61557457569706,6.591064009739966,2.6393035693018874
3730.085883166667,0.019640028476715,-0.0294306576251983,-0.0518938452005386,-66.01356666887641,8.99050379079398,0.07955682835856237
3730.106019166667,0.0332081317901611,-0.0218714326620101,-0.0459306091070175,-71.1488456335232,6.601929885451341,0.07030776584997511
3730.126155166667,0.0355545878410339,-0.0114989876747131,-0.0406161099672317,-73.66297315117345,-1.4225670853591055,2.8281081406042574
3730.1462911666663,0.0548123121261596,-0.0194734036922454,-0.0443981736898422,-74.52725847525824,-10.935341644555763,6.520312550870955
3730.1664281666663,0.0927098393440246,-0.0258207023143768,-0.0538861155509948,-74.76366536346886,-19.39936585906281,9.4077760747453
3730.186564166667,0.1413248777389526,-0.0252396613359451,-0.0646321773529052,-74.05939198100317,-28.848441925477175,10.393436620869778
3730.206700166667,0.1671911478042602,-0.0424908176064491,-0.0680177807807922,-72.52006829984805,-37.73164610909987,9.254530843473674
3730.226836166667,0.1772717237472534,-0.0466819554567337,-0.0761788934469223,-70.75369581015916,-45.22420794370703,6.534572819843731
3730.246972166667,0.1791849136352539,-0.0564237087965011,-0.0851437896490097,-68.15192711213778,-53.5251599277899,2.5645671986794127
3730.2671081666663,0.188639760017395,-0.0535650476813316,-0.0875425785779953,-65.00917497757793,-64.12099793583366,-3.213093738715145
3730.2872451666663,0.220391571521759,-0.0548001006245613,-0.0692670941352844,-60.7756464750183,-78.79638327898988,-9.551815588110202
3730.307381166667,0.2817891836166382,-0.0795643180608749,-0.0126410722732543,-56.82589379052775,-94.1914638234195,-13.533424136454641
3730.327517166667,0.4217854738235473,-0.1258500814437866,0.0323065370321273,-54.66727220683487,-102.88276049347189,-15.748722861579267
3730.347653166667,0.4067120552062988,-0.1575096398591995,0.0370174199342727,-49.94563114257635,-103.41071464669511,-24.188584948828407
3730.367789166667,0.0434804558753967,-0.1248163729906082,0.04488205909729,-39.63061645130455,-112.66247127751399,-30.304435679094155
3730.387926166667,-0.1830612421035766,-0.1067602336406707,0.0200268030166625,-23.943203212233357,-136.61479970204624,-30.554125917085173
3730.4080621666662,-0.2794312834739685,-0.112465038895607,0.0197698473930358,-4.4193710353839455,-159.93574465195763,-29.595008051365568
3730.428198166667,-0.2819446921348572,-0.1177948787808418,0.0412209630012512,13.392089931563822,-174.25072516490587,-27.863154407409496
3730.448334166667,-0.2419328689575195,-0.1736667156219482,0.0653228163719177,23.83845038368275,-171.5196436137674,-25.658062261606318
3730.468470166667,-0.1581426858901977,-0.2370614558458328,0.0978298932313919,28.33379808946397,-152.5329882124339,-22.66185573663435
3730.488606166667,-0.0552046298980712,-0.3046002089977264,0.1255809217691421,27.027186828840666,-117.58513971832656,-19.848195086682097
3730.508743166667,0.0220525860786438,-0.3499320447444916,0.1414717435836792,21.2613143361463,-69.87207984132908,-18.380365888506844
3730.5288791666662,0.0284386873245239,-0.3369819521903991,0.1324396729469299,14.548003801150976,-22.211125254884223,-18.37537355886525
3730.549015166667,0.0086699724197387,-0.2289990186691284,0.0995694994926452,12.888224110327396,3.6991881001540605,-18.372507642956748
3730.569151166667,-0.0104420185089111,-0.1405458897352218,0.0589784085750579,17.874928595130402,7.728016245677338,-17.80898299018432
3730.589287166667,-0.0431732535362243,-0.0780093744397163,0.0288995802402496,27.99448980636162,-3.046053562447071,-15.627139941079093
3730.609424166667,-0.0641255974769592,-0.029985025525093,-0.0015806853771209,39.83757997459862,-18.345617848282814,-11.425578718073837
3730.629560166667,-0.0765795111656189,-0.0153032839298248,-0.020105242729187,51.382249764163326,-33.38076141434243,-7.300222340887785
3730.649696166666,-0.110514223575592,-0.0153119042515754,-0.0095077455043792,58.86032326502673,-39.94622034439459,-3.152218641947968
3730.6698321666663,-0.118093192577362,-0.0151640325784683,-0.0034347176551818,62.174758968092725,-39.49028422840826,0.871055364017792
3730.689968166667,-0.1019377708435058,-0.0326212644577026,0.0012074708938598,60.30612507142234,-30.129941575737007,2.9906681914454225
3730.710104166667,-0.0845358371734619,-0.031041219830513,0.0102764070034027,53.105290512581234,-13.305711850837554,3.5498472543530113
3730.730241166667,-0.0699045658111572,-0.0187443792819976,0.0175246596336364,43.842454302690825,5.333417556011,2.6271642966904096
3730.750377166667,-0.0833803415298461,-0.0072808861732482,0.0136963725090026,33.791628638166316,24.663522528511805,2.292515657252636
3730.770513166667,-0.1056582927703857,0.0180073082447052,0.0043486952781677,25.582316190869967,39.14304661020083,3.8989046093455215
3730.7906491666663,-0.1367691159248352,0.0288287699222564,-0.0114305317401885,18.798866800545433,48.80582475316828,8.159848319593266
3730.810785166667,-0.1339146494865417,0.0407326072454452,-0.0403283536434173,12.174265704840526,55.247678731133476,13.696686346768416
3730.8309231666663,-0.1224564909934997,0.0372348576784133,-0.0750458538532257,6.143650891851493,59.304375882875604,18.045314680659885
3730.851059166667,-0.0961081385612487,0.0193807780742645,-0.1025348305702209,0.6605076638636298,61.92069174783512,20.41934860659822
3730.871195166667,-0.0552175641059875,0.003829687833786,-0.1075727790594101,-4.168842978045806,63.198940092668465,22.617676690644117
3730.891331166667,0.0641999840736389,-0.0224431008100509,-0.0806719660758972,-9.064948521693594,65.79638842058841,27.067395153375884
3730.911467166667,0.248071551322937,-0.0671362429857254,-0.0653004050254821,-17.779633763039904,78.19073675328809,29.981925696777978
3730.9316031666663,0.3779149055480957,-0.0877198874950409,-0.0762665271759033,-27.740315734292587,97.29894560628765,28.018962146493465
3730.9517401666662,0.3983411192893982,-0.0691095441579818,-0.1072524189949035,-34.948301475609654,111.91709002724792,20.27298635942074
3730.971876166667,0.1867201924324035,-0.0465296059846878,-0.1238524615764617,-33.52279929531541,114.4754286597589,10.176748362761856
3730.992012166667,-0.0469459891319274,-0.0402600467205047,-0.0664781928062439,-25.341353662314425,104.39328437117723,7.009731580862422
3731.012148166667,-0.1476869583129882,-0.0587969422340393,-0.0206754207611084,-15.991204979945106,100.68078216464897,8.071733706758266
3731.032284166667,-0.1589131951332092,-0.0624375864863395,0.0044909119606018,-9.6470264250339,108.53467228812121,8.025197887513258
3731.0524201666663,-0.1689676642417907,-0.0124430507421493,0.0194792300462722,-7.75426448172114,118.07029486656404,6.3176789049087745
3731.0725571666662,-0.164139986038208,0.0116183161735534,0.0209781676530838,-9.356986392198774,122.27154719423652,3.385893452597344
3731.092693166667,-0.1222174167633056,0.0028814598917961,0.0280927568674087,-13.280157221497335,124.98061608735043,-0.49174958941975433
3731.112829166667,-0.0404960513114929,-0.0157611742615699,0.0312435626983642,-18.10755129155894,128.1265817617296,-6.069220134136799
3731.132965166667,0.0375947952270507,-0.0469515845179557,0.0478111803531646,-23.679622097638344,132.5576894227595,-12.99451861182277
3731.153101166667,0.0765895247459411,-0.0737262815237045,0.0712275803089141,-28.510280945953646,135.90863206568145,-19.583371928313653
3731.1732371666662,0.1199118494987487,-0.1010432764887809,0.0922150015830993,-31.623972486132534,135.3103996294763,-23.63610170861321
3731.193374166666,0.168686032295227,-0.1185198277235031,0.0974756777286529,-31.34758446721191,130.9521292664556,-26.528798338200232
3731.2135101666663,0.175911545753479,-0.1246052831411361,0.1020667552947998,-27.50569301593445,121.78248993881624,-29.192699277982825
3731.233646166667,0.1622682213783264,-0.120936095714569,0.114549309015274,-21.057639526042504,106.62314455211686,-31.609940396152325
3731.253782166667,0.1311061978340149,-0.1115841716527938,0.1302870512008667,-11.547968595476787,85.58952006887637,-33.46002063268685
3731.273918166667,0.0792542695999145,-0.1018714755773544,0.1586444973945617,-0.28280991560674096,62.78523600611976,-34.26404322975287
3731.294055166667,0.0309519171714782,-0.0779624432325363,0.1908758282661438,11.888573942307602,41.67902231872063,-32.810715515876865
3731.314191166667,0.0329796075820922,-0.0750226154923439,0.2283875942230224,22.2003225954428,25.24413475804721,-28.925876478291457
3731.3343271666663,0.0557020902633667,-0.0556483007967472,0.2477417290210724,29.426749782153927,14.850396704953539,-24.91179854629806
3731.354463166667,0.056574523448944,-0.0239131897687912,0.2592562735080719,34.8271757625801,6.2407187609494486,-21.10789667823738
3731.374599166667,0.035054326057434,-0.0027081295847892,0.2579123377799988,38.832774887978694,-0.9629259995520556,-17.3213178671638
3731.394735166667,0.0340107679367065,0.0168511644005775,0.2684864103794098,42.427499232002866,-9.778522973850556,-11.884804221045187
3731.414872166667,0.0232643485069274,0.016298733651638,0.2595239579677582,45.2448430756883,-16.67192696855011,-9.343328288872499
3731.435008166667,-0.0173985362052917,0.018356405198574,0.2605549693107605,46.990060469325456,-20.190848971586206,-4.394237277317359
3731.4551441666663,0.039516806602478,0.0168463736772537,0.2519645094871521,47.52822322780958,-22.025488342764277,0.4929186802925756
3731.475280166667,0.0745254158973693,0.0122414827346801,0.2356575429439544,47.72873951895704,-21.175116130190474,1.0920839392298376
3731.495416166667,0.0612177848815918,0.0106653869152069,0.2330648303031921,47.470851551095365,-17.15009057376733,0.9025000847657338
3731.515552166667,0.0767868757247924,0.0187969803810119,0.2305207550525665,48.01074746599605,-13.065533701931997,1.679682543533545
3731.535689166667,0.0831524729728698,0.0320633947849273,0.2162396013736724,50.14371986801498,-7.9026272416669485,1.6162067827011128
3731.555825166667,0.0723256468772888,0.0634352415800094,0.2013575434684753,52.897781036609004,-2.988358112042988,2.094392827585523
3731.5759611666663,0.0747026801109314,0.1009215116500854,0.1973461508750915,55.61922958879295,-1.7503239472432597,4.2955571614463395
3731.596097166667,0.0948719382286071,0.1104775369167327,0.1947223842144012,56.17769299088167,0.48987197850465236,5.927951518997787
3731.616233166667,0.0878754258155822,0.137000560760498,0.1932458579540252,53.46745834866704,5.750784184644431,6.388428623733233
3731.636369166667,0.0803658962249755,0.1622391641139984,0.1925938725471496,48.58335277573795,9.920441832294102,7.3663532554085975
3731.656506166667,0.0661542415618896,0.1727038621902465,0.1934701204299926,40.93305348724048,13.95563026677138,7.793851065908086
3731.676642166667,0.0498589277267456,0.173321783542633,0.1967362463474273,30.608644969452925,19.012495683605835,7.801273840057377
3731.6967781666663,0.0398926734924316,0.1718978285789489,0.1925944983959198,18.037802994581398,24.958229869587,7.503920208142034
3731.716914166667,0.037585973739624,0.1695269346237182,0.1861753165721893,4.593802514113676,29.827972599495922,7.908897381804536
3731.737050166667,0.0398908257484436,0.1522060632705688,0.1746829450130462,-8.765623254647004,34.30785120394688,8.44318971240412
3731.757186166667,0.0318896174430847,0.1418884992599487,0.156072199344635,-19.844938990744332,35.31082451662684,9.683181709242916
3731.777323166667,0.0229427218437194,0.1191668808460235,0.1453055441379547,-28.782452747367948,33.83218890871973,12.106986200075909
3731.797459166667,0.0240371823310852,0.1034769713878631,0.1352231502532959,-36.59943959540879,33.71047266190743,14.202676421859195
3731.8175951666663,0.0434460639953613,0.0804488956928253,0.1123472452163696,-42.865542794677665,34.56012195921119,15.60843107570662
3731.8377295,0.0573176741600036,0.0607718527317047,0.0879273414611816,-48.26686442245016,34.78205060284125,15.731419875768893
3731.8578655,0.0529897212982177,0.0584962368011474,0.0690623819828033,-51.50006928245059,31.825191030920053,15.370945734907338
3731.8780015,0.0429204106330871,0.0493019521236419,0.0600612759590148,-52.36709503515762,24.57060156177988,14.99141689687491
3731.8981385,0.0242723822593688,0.0614090114831924,0.0514476299285888,-52.10520681334625,15.056832814694587,14.463710866733948
3731.9182745,0.0229573845863342,0.0542531758546829,0.0377814471721649,-52.14893392672497,5.472068231296134,13.817085640016558
3731.9384105,0.0524823069572448,0.0567939132452011,0.0368279516696929,-52.65780428059195,-4.422770579509461,10.866111636735809
3731.9585465,0.0622631311416626,0.0567816793918609,0.0495963245630264,-53.12582390322902,-17.16560202071804,7.262818388354475
3731.9786825,0.0681653022766113,0.0565508753061294,0.0650154650211334,-53.872744262834615,-31.78165462223035,5.051449740805936
3731.9988185,0.0977223515510559,0.0407955348491668,0.08066326379776,-53.44928710943853,-46.715384137785065,2.7180756945675455
3732.0189555,0.118143618106842,0.0220867320895195,0.1060089170932769,-52.7897692197405,-58.916313686796684,0.9225847118145225
3732.0390915,0.1620896458625793,-0.0107257440686225,0.1189301609992981,-51.43904186600587,-67.61622404605703,-1.5981697162168018
3732.0592275,0.1583924889564514,-0.0258311182260513,0.1295585185289383,-48.326767736556576,-75.95027788709388,-4.839857460552821
3732.0793635,0.1175309419631958,-0.0283480174839496,0.1316148042678833,-41.845844582963124,-88.4679784933212,-6.926782394374698
3732.0994995,0.086735188961029,-0.0408931002020835,0.1348527073860168,-32.992515521628974,-103.57053106369136,-5.590588755681125
3732.1196355,0.1334202289581298,-0.063975915312767,0.1354599595069885,-23.998481358419966,-115.98108250800863,-3.55589288999667
3732.1397725,0.1292692422866821,-0.0735613852739334,0.1314782202243805,-15.268404883032971,-125.45348379662471,-3.2547250042370024
3732.1599085,0.0770309567451477,-0.0737271159887313,0.1160158812999725,-7.776186349779691,-132.02763690203483,-2.3862805838106738
3732.1800445,0.0265940427780151,-0.0429468750953674,0.064142107963562,-0.3404250358458649,-139.72847249468998,-1.507476659044471
3732.2001805,-0.02605402469635,-0.0031387526541948,0.0356326401233673,9.262944246196886,-156.81368878803994,-1.5190339987569246
3732.2203165,-0.0991485118865966,-0.0117869917303323,0.0596488118171691,15.707275380298602,-175.16941273377284,1.6253139220125945
3732.2404525,-0.1303320527076721,-0.0668215900659561,0.0355460196733474,13.830040792252142,-177.3625719869898,8.418916342330363
3732.2605895,-0.128718614578247,-0.1419074386358261,-0.0173590779304504,4.905943166146987,-160.09409886230088,14.096578578254793
3732.2807255,-0.1083821654319763,-0.2126515656709671,-0.0643186271190643,-9.240484659991765,-129.05299477422005,16.052666573449414
3732.3008615,-0.0908313989639282,-0.308851808309555,-0.1022716462612152,-26.042807314072714,-83.57281710676858,14.663319738509273
3732.3209975,-0.0708826780319213,-0.3709838986396789,-0.1467423290014267,-41.52648208661949,-28.694341758139785,12.733257686981858
3732.3411335,-0.0188322663307189,-0.3854934275150299,-0.213177740573883,-52.102618432333735,23.832692057317217,10.865816151310526
3732.3612695,0.021417498588562,-0.313844621181488,-0.2738465070724487,-55.98619086306444,63.15963405122176,8.148624994498022
3732.3814055,-0.0013503432273864,-0.2060754299163818,-0.3081181049346924,-50.104231733054185,75.73603557162585,2.67483714706529
3732.4015425,-0.0558206439018249,-0.1346276700496673,-0.3050546646118164,-36.45281274431718,65.11168987365892,-3.106715507198743
3732.4216785,-0.0942370891571044,-0.0859100595116615,-0.2734401822090149,-19.548881985100852,45.43454025812821,-6.765960798668402
3732.4418145,-0.0881668329238891,-0.0780887305736541,-0.2309782356023788,-2.1217554050349197,28.527161934302114,-8.574913989649957
3732.4619505,-0.0868921279907226,-0.0982228741049766,-0.1582778394222259,9.748417349322192,24.479968681744424,-9.365667067841343
3732.4820865,-0.0860785841941833,-0.0897386446595192,-0.0852516293525695,15.813396354154285,32.43645761079108,-10.608387061791547
3732.5022225,-0.0844656229019165,-0.1116578578948974,-0.0353333204984664,19.41901596564808,44.60054322198488,-11.87283197118063
3732.5223595,-0.0666708350181579,-0.1056187152862548,-0.0025251656770706,22.312366498921786,57.15697668603639,-12.130503046142138
3732.5424955,-0.0297673940658569,-0.1027063354849815,0.0083049684762954,26.20129653238834,69.5045181529963,-12.57661612906844
3732.5626315,0.0014382004737854,-0.0781685262918472,-0.0047334730625152,30.838340487684036,78.48109852742482,-14.271293145333885
3732.5827675,0.0239806175231933,-0.0466320589184761,-0.0260440409183502,36.279600549962446,80.55383976424935,-16.650241976460478
3732.6029035,0.0610726475715637,-0.0128748780116438,-0.0478772521018981,43.334580433202255,76.44929179345326,-19.320591034475854
3732.6230395,0.0846448540687561,0.0132783874869346,-0.0578037500381469,52.54609896739183,67.51874299503271,-23.007758437589843
3732.6431755,0.0651485323905944,0.0557502023875713,-0.0494195818901062,62.559456111403236,56.187727379403896,-26.203677704267392
3732.6633125,0.0324096083641052,0.0681427270174026,-0.032044768333435,72.46065278689598,46.712834533195746,-28.02964339880276
3732.6834485,-0.0129636526107788,0.078376680612564,0.0109766721725463,80.15874424499192,42.492156343621446,-28.020043260926286
3732.7035845,-0.0360379219055175,0.1132561862468719,0.0473172962665557,85.31395811836182,39.16888067406035,-25.014828599445593
3732.7237205,-0.0328380465507507,0.1348984986543655,0.0755409300327301,87.24777385092541,37.27651991251406,-20.703956604278062
3732.7438565,-0.0428741574287414,0.1636648476123809,0.0976265966892242,85.48089906784364,35.310587353804124,-15.424615676819542
3732.7639925,-0.0573627948760986,0.1812365353107452,0.1057150363922119,80.16102157484583,32.73296973195983,-9.888164788498699
3732.7841295,-0.073759913444519,0.1858652085065841,0.1107072234153747,71.50412549855814,29.57493702448062,-3.4047354399469043
3732.8042655,-0.0432236194610595,0.174953281879425,0.1190122663974762,59.83825816231247,26.25956673563934,3.8889150029589814
3732.824402166667,-0.0059754252433776,0.1436791121959686,0.1179259419441223,45.24333909568892,27.22988001349478,8.58207020493893
3732.844538166667,0.0350511670112609,0.1033323407173156,0.1164818108081817,28.416336389548125,34.197134508048066,10.28838877056586
3732.864674166667,0.0740149021148681,0.0677937865257263,0.1137238442897796,11.70920361307033,45.49578765577138,7.676386232416377
3732.8848101666663,0.0614709258079528,0.0480129122734069,0.1032567024230957,-0.6090833126753736,56.486113299266094,2.2204093045132822
3732.9049471666663,0.0122874975204467,0.0648616850376129,0.1029784083366394,-5.825334751021316,60.95382408735901,-1.675077492856758
3732.925083166667,-0.0418393015861511,0.0826122462749481,0.1126527190208435,-6.318173270188865,61.20096636784069,-2.3613583450533326
3732.945219166667,-0.0610799193382263,0.103881686925888,0.1144550740718841,-4.64783233341759,58.70310287115643,-0.1793322727152713
3732.965355166667,-0.0623848438262939,0.1241536438465118,0.116823136806488,-1.841215876938307,53.51263165828186,3.9563756419397578
3732.985491166667,-0.0489515662193298,0.1469124555587768,0.1295987367630005,0.023776887708670813,47.31476280546332,9.424021047014008
3733.0056271666663,-0.0169560313224792,0.1563169360160827,0.1459598839282989,-0.8497089920368239,41.96884911046368,15.330332613623199
3733.025763166667,0.0188075900077819,0.1617032289505005,0.1507997512817382,-3.8217513526811686,37.3500275927384,21.058337107146485
3733.045900166667,0.0562798976898193,0.1772159039974212,0.1496663987636566,-8.109927490584745,32.58327823382814,26.756802289940396
3733.066036166667,0.0782631039619445,0.1865357458591461,0.1490569710731506,-14.22572779939335,26.237805533673964,33.12272873941424
3733.086172166667,0.0967793464660644,0.1747206151485443,0.1408925652503967,-22.501743622578996,20.39949849957452,40.29975367406706
3733.106308166667,0.1176179647445678,0.148743450641632,0.1284756064414978,-33.707241703886304,18.84492797759947,47.34082011451832
3733.1264441666663,0.1310169696807861,0.119596779346466,0.0939804911613464,-45.73994411152951,19.277431197939165,53.51058414723866
3733.146580166667,0.1421390175819397,0.0905395448207855,0.0454565286636352,-56.13949376001868,20.600345760908567,57.93595944217742
3733.166717166667,0.1340178847312927,0.0376799404621124,0.0089952945709228,-64.13912809321056,23.83631231512311,59.87075596663516
3733.186853166667,0.1258062124252319,-0.0167411267757415,-0.0384711027145385,-69.55029682926109,29.55416398206694,59.359957928157314
3733.206989166667,0.0913288593292236,-0.0489549338817596,-0.0854324549436569,-72.16005487773822,38.81368895005153,56.630754355051494
3733.227125166667,0.0443849563598632,-0.0655188411474227,-0.13722924888134,-71.73494903283428,46.272819156442324,54.11354269994533
3733.2472611666662,0.0113181471824646,-0.0758763775229454,-0.1789474487304687,-69.68528029939822,49.78762772522742,51.598416149958126
3733.267397166667,-0.0246471762657165,-0.066105343401432,-0.2106756120920181,-65.26461036102869,47.1570934377425,48.43860306612129
3733.287533166667,-0.0545094013214111,-0.0803658068180084,-0.2268427014350891,-60.07525890266414,40.463854178010195,44.743106330909654
3733.307670166667,-0.0646731853485107,-0.1029954254627227,-0.2335895895957946,-55.219413900253365,35.126668662790905,40.86243725676937
3733.327806166667,-0.0283156037330627,-0.1267506331205368,-0.223600685596466,-51.414431322370376,34.40900074293012,36.80678135882758
3733.347942166667,0.0352685451507568,-0.1459946781396865,-0.2165700197219848,-48.18142543988383,36.72978287340669,31.14762823876589
3733.3680781666662,0.0889778137207031,-0.1621538251638412,-0.2026647329330444,-46.55764610273174,40.12390503930874,24.557211361342013
3733.388214166667,0.1197425127029419,-0.1808955073356628,-0.1969781517982483,-45.61980571742873,44.993311943072456,17.08251141910111
3733.408350166667,0.0939838290214538,-0.1831293553113937,-0.1889357566833496,-43.85645712181858,48.2214595818931,8.961651542092852
3733.428486166667,0.0436490178108215,-0.1868679672479629,-0.174670398235321,-41.375966189040334,45.81136286776655,1.9133135734598739
3733.448623166667,0.0065345764160156,-0.1897293329238891,-0.1712607145309448,-38.27953851462698,36.149626684766645,-5.003479604617667
3733.468759166667,-0.0202236771583557,-0.2015694081783294,-0.1606634855270385,-32.500754075894456,21.667034920892547,-11.600452205421163
3733.488895166666,-0.0395306348800659,-0.2169536352157592,-0.1543909311294555,-25.16559892193002,7.667395645358965,-17.92164411979016
3733.509031166667,-0.0454806089401245,-0.2191857248544693,-0.1421892642974853,-16.970777838359563,-7.080657952853642,-23.098838841483627
3733.529167166667,-0.0110331177711486,-0.221599280834198,-0.11919766664505,-8.66658978614665,-22.667422556439476,-28.160467363235142
3733.549303166667,0.0260552167892456,-0.242916464805603,-0.0816512033343315,-0.8811800830009986,-36.0716984052587,-32.98077250806628
3733.569440166667,0.055506408214569,-0.2534652352333069,-0.041697971522808,6.31568917657277,-45.40755739964055,-36.37567268180817
3733.589576166667,0.0744135975837707,-0.2707024216651916,-0.007939875125885,13.153574561750725,-49.219800629710164,-38.185471011642136
3733.609712166666,0.0765953660011291,-0.2674967348575592,0.0156937837600708,20.117423703026915,-50.181971986940255,-38.905570730843664
