timestamp,AccX,AccY,AccZ,pitch,yaw,roll
36585.07405979167,-0.025852128863334656,-0.02734515070915222,-0.0853467583656311,-0.2299272075719112,-0.019899131582130712,-0.17190852310032598
36585.094195791666,0.13268724083900452,-0.04271923005580902,-0.05156296491622925,-0.23369868632313043,-0.022769401769588877,-0.17696928284114777
36585.11433179167,0.04079386591911316,-0.0024707168340682983,-0.0023236870765686035,-0.23790871121961238,-0.024126560212364315,-0.18194833725477264
36585.13446879167,0.03296540677547455,-0.028935149312019348,0.013804197311401367,-0.24328787349911277,-0.02584841497666569,-0.18695663707254434
36585.15460479167,0.01569943130016327,-0.03756193816661835,0.055705487728118896,-0.24906767447317857,-0.029367298575423615,-0.19166358280748452
36585.17474079167,-0.0004943609237670898,-0.060271769762039185,0.05943423509597778,-0.25398799674406386,-0.03371263121665015,-0.19558357233354678
36585.19487779167,-0.01539812982082367,-0.07007375359535217,0.017485499382019043,-0.2561070392697498,-0.038778533766826676,-0.19894658881235566
36585.21501379167,0.031226441264152527,-0.07984301447868347,0.0038644075393676758,-0.2554957060814223,-0.04492546387277374,-0.20286696588498246
36585.23514979167,0.034530237317085266,-0.08008736371994019,0.003324747085571289,-0.2512244366724412,-0.050749055788361225,-0.20667019435906414
36585.25528679167,0.040430694818496704,-0.06596904993057251,0.0276334285736084,-0.24434220076828578,-0.05606023620350759,-0.21025457478898008
36585.27542279167,0.035045325756073,-0.03490631282329559,0.0607568621635437,-0.23575350221554686,-0.06151500840029423,-0.21332258500446064
36585.295558791666,0.027749985456466675,-0.004345685243606567,0.09213453531265259,-0.2282931181140086,-0.06803801675624134,-0.21556858430786474
36585.31569479167,0.04188898205757141,0.025722384452819824,0.1416175365447998,-0.22377542565898692,-0.07618174403799348,-0.21672888391875875
36585.33583179167,0.02694620192050934,0.03693051636219025,0.1546652913093567,-0.2213264558407912,-0.0854911889317423,-0.21647411295799113
36585.35596779167,0.09625580906867981,0.16216111183166504,0.14162731170654297,-0.2151666718213564,-0.09506275571090991,-0.21558666415010377
36585.37610379167,0.05602589249610901,0.15505383908748627,0.17998665571212769,-0.20050439161185932,-0.10675082471910247,-0.21432881174271032
36585.39624079167,0.3116833567619324,0.37411123514175415,0.12059974670410156,-0.1732011436224138,-0.10746275514595045,-0.20659995533457387
36585.41637679167,-0.003059566020965576,0.09078213572502136,0.25843751430511475,-0.13643208098597473,-0.11354210197526737,-0.1995989803546092
36585.43651279167,0.04965735971927643,0.14416934549808502,0.3915162682533264,-0.1023931310859549,-0.12874166252275251,-0.19267350805960615
36585.45664979167,0.13829734921455383,0.27778303623199463,0.41524946689605713,-0.06665717916895646,-0.15116363566129648,-0.1831505221710181
36585.47678579167,0.2268267720937729,0.12697282433509827,0.36707860231399536,-0.028273842704655487,-0.17633257073181954,-0.17068483814212987
36585.496921791666,0.19144496321678162,0.3199364244937897,0.35397469997406006,0.01857640900458939,-0.2046477232740375,-0.15510545451149724
36585.517058791665,0.2084960788488388,0.46298959851264954,0.31444305181503296,0.08531597174577375,-0.23787175278330552,-0.13615256191298955
36585.53719479167,0.29010987281799316,0.3973056674003601,0.36305540800094604,0.16078437523123512,-0.28001538562948514,-0.11516483872033186
36585.55733079167,0.35372763872146606,0.18171626329421997,0.4207134246826172,0.23332712560026686,-0.33185703850532894,-0.08986181367045387
36585.57746779167,0.34846681356430054,0.13827082514762878,0.34644508361816406,0.30795608773680366,-0.3919057718258882,-0.05722826741580891
36585.59760379167,0.37548452615737915,0.06040710210800171,0.3134663701057434,0.3808248426610941,-0.4628968099753264,-0.016778189557538806
36585.617738125,0.42355814576148987,-0.13357406854629517,0.21288591623306274,0.4423239391472301,-0.5453846603883625,0.030795563056917982
36585.637875125,0.44421860575675964,0.07304641604423523,-0.005860328674316406,0.5110140609673082,-0.6371389805181433,0.08404534675204894
36585.658011125,0.4636407196521759,-0.13301223516464233,0.02074509859085083,0.5817451440968352,-0.7427041661455613,0.1444290577700085
36585.678147125,0.39000481367111206,-0.12415891885757446,0.09229332208633423,0.6443504996219861,-0.8645911345923467,0.21549279665997018
36585.698284125,0.3975338339805603,-0.18173682689666748,0.1536262035369873,0.6983301864900135,-1.001928743296651,0.2983227556369823
36585.718420125006,0.3670814633369446,-0.19234061241149902,0.09229665994644165,0.7406949908682559,-1.1544453103420032,0.39373441342352977
36585.738556125005,0.36852478981018066,-0.1282978057861328,-0.011426389217376709,0.7766732424693472,-1.3265268401073986,0.5055991553143431
36585.758693125004,0.4157319962978363,-0.12072575092315674,0.08956694602966309,0.8024882205362653,-1.5194805578176676,0.6345895403498869
36585.778829125,0.567643404006958,-0.2882121801376343,0.12466055154800415,0.8130552975512083,-1.721343545006117,0.7695912734283035
36585.798965125,0.690407931804657,-0.36700916290283203,0.03010547161102295,0.8171706711627725,-1.929104906913121,0.9058612468025838
36585.819102125,0.5635025501251221,-0.36235761642456055,0.07366669178009033,0.811897167325634,-2.1318655219530127,1.0347492773698046
36585.839238125,0.3333774209022522,-0.2889860272407532,0.1392216682434082,0.7952885720950106,-2.3138989514917103,1.1459014215038925
36585.859374125,0.19052815437316895,-0.27863073348999023,0.11637158691883087,0.7694842469146503,-2.469180452406484,1.2342991307012885
36585.879511125,0.1522752046585083,-0.19654572010040283,-0.012816712260246277,0.7360819148285285,-2.5968776899104595,1.2975014932327966
36585.899647125,0.1429579257965088,-0.1608525514602661,-0.0585675984621048,0.6963530757632872,-2.6987253250401637,1.335003521951602
36585.919783125006,0.12661445140838623,-0.04913973808288574,-0.1038365364074707,0.6538598467807206,-2.7853036119033514,1.3539281208230871
36585.939920125005,0.16011112928390503,0.019596457481384277,-0.05171102285385132,0.6124189823784009,-2.868875688825922,1.3630969576136047
36585.960056125004,0.18350082635879517,-0.021812140941619873,0.053745269775390625,0.5719621060770683,-2.9492428682375884,1.3639865939023301
36585.980192125004,0.166253924369812,-0.0964478850364685,0.1622833013534546,0.5315491412355065,-3.0211556194225344,1.3566722334581782
36586.000329125,0.14038461446762085,-0.08282908797264099,0.22984528541564941,0.4923321612547318,-3.0848633074333014,1.3440161149972791
36586.020465125,0.09469002485275269,-0.08455818891525269,0.30440640449523926,0.4543170519735556,3.1413377434488443,1.3295246278166775
36586.040601125,0.0571824312210083,-0.16847306489944458,0.33916541934013367,0.4169933484900249,3.09242458919231,1.3155214605405607
36586.060738125,0.01473987102508545,-0.15894657373428345,0.297294020652771,0.38089778686419806,3.0495902228025145,1.3038348422230994
36586.080874125,-0.013261556625366211,-0.15635693073272705,0.31478065252304077,0.3468966145916474,3.0105869994893566,1.2957214088788995
36586.101010125,-0.034001171588897705,-0.21110418438911438,0.271563857793808,0.3154002667303888,2.97541790243302,1.2903560910460163
36586.121147125,-0.05409502983093262,-0.1971488893032074,0.21724385023117065,0.2872221725642846,2.9413142656132214,1.2871689907503827
36586.141283125005,-0.08133989572525024,-0.18011364340782166,0.21001526713371277,0.26241715178657515,2.9051718460014047,1.2866617064324932
36586.161419125005,-0.09615916013717651,-0.168843612074852,0.20387938618659973,0.24002486064810913,2.8659871898147236,1.2886312393137371
36586.181556125004,-0.12470108270645142,-0.167962446808815,0.2051222026348114,0.21888241127583355,2.8238645221410983,1.2933202310550456
36586.201692125,-0.15481382608413696,-0.1916852742433548,0.20931079983711243,0.19839230139337358,2.778692641183097,1.300686973873836
36586.221828125,-0.16810935735702515,-0.3289462625980377,0.23312470316886902,0.1757721468596219,2.739022087983919,1.308379959104959
36586.241965125,-0.16265571117401123,-0.42115095257759094,0.23226606845855713,0.14859386659758733,2.712116487123849,1.3148107108932439
36586.262101125,-0.10367375612258911,-0.47718724608421326,0.1881321221590042,0.11899485691912265,2.6965333548705916,1.3209672692360137
36586.282237125,0.051727235317230225,-0.616145670413971,0.19883513450622559,0.08833010435696412,2.693398483743501,1.3278222396974795
36586.302374125,0.26323264837265015,-0.731589138507843,0.17722630500793457,0.05962968929945046,2.7033236286143505,1.3362799266768763
36586.322510125,0.3944591283798218,-0.7389673590660095,0.11340287327766418,0.04061531559074581,2.7192573186208855,1.3479493162663576
36586.342646125006,0.32084476947784424,-0.6752734184265137,0.09284484386444092,0.035732715193945136,2.733480855601098,1.3649974418310185
36586.362783125005,0.18577909469604492,-0.5780705213546753,0.058113083243370056,0.04193687769265837,2.7482124332876823,1.3872724432918342
36586.382919125004,0.1235317587852478,-0.43789175152778625,-0.0063834041357040405,0.05586592789139344,2.764073026768667,1.4127484687555985
36586.403055125,0.057017982006073,-0.3733028173446655,-0.053056493401527405,0.0753769208195405,2.7803775812117655,1.439479624603394
36586.423192125,0.001053154468536377,-0.3881559371948242,-0.05753535032272339,0.0996799124739195,2.801285263506434,1.466153713500149
36586.443328125,-0.03589320182800293,-0.39055877923965454,-0.03369837999343872,0.1283941475507724,2.833829521051597,1.4909140684679691
36586.463464125,-0.022413432598114014,-0.3050079643726349,-0.039764344692230225,0.16182284939219244,2.8798761904962946,1.5117015928927995
36586.483601125,0.027240335941314697,-0.19512434303760529,-0.05019897222518921,0.20025436105618868,2.935037159276192,1.5270126411141471
36586.503737125,0.1483038067817688,-0.10835111141204834,-0.03570633754134178,0.24344205590888546,2.9945224550320177,1.5362952923420743
36586.523873125,0.2417033314704895,-0.0425170361995697,0.028731944039463997,0.2901661409708991,3.055799888170254,1.5395635773285707
36586.544010125,0.27579981088638306,-0.007113844156265259,0.11375224590301514,0.3400060471453608,3.1182941766051213,1.5380819263078298
36586.564146125005,0.3064984083175659,-0.025716423988342285,0.18751180171966553,0.3921888789605992,-3.0985186389799786,1.5318867079924041
36586.60441875,0.39330482482910156,0.05450922250747681,0.32388436794281006,0.5004813783899232,-2.9542765460814753,1.5030886112991024
36586.62455475,0.3643149137496948,0.11060130596160889,0.3306623697280884,0.5548852717340365,-2.8753772082829085,1.4805297739414662
36586.64469075,0.3633556365966797,0.15809977054595947,0.3389599323272705,0.6083400059158798,-2.794368808966439,1.4523859736904807
36586.66482775,0.374390184879303,0.1767340898513794,0.324989378452301,0.6585562391015584,-2.718043842835326,1.4221035543334664
36586.684963750005,0.34889107942581177,0.2286607027053833,0.3313506841659546,0.7049792268535849,-2.6541405468747863,1.3943721051498725
36586.705099750005,0.19512087106704712,0.1925925612449646,0.41050809621810913,0.7482468708709727,-2.598852816896582,1.3683753535586312
36586.725236750004,0.04639697074890137,0.05190074443817139,0.49345022439956665,0.7876104907751833,-2.540545657692442,1.337652964952744
36586.74537275,0.015796184539794922,0.06814819574356079,0.5141130685806274,0.8235132823088117,-2.4807064456945263,1.3039323245226346
36586.76550975,0.037908732891082764,0.07968872785568237,0.514458417892456,0.8578160463232206,-2.4274918226998707,1.2731485374108478
36586.78564575,0.004924893379211426,0.06834888458251953,0.5400739312171936,0.8914590339737517,-2.3823671983390176,1.2476968555575034
36586.80578175,0.0002046823501586914,0.04565393924713135,0.5557651519775391,0.9254963039469006,-2.3377555140233532,1.2238729387134182
36586.82591875,0.11384862661361694,0.0912177562713623,0.5136237144470215,0.9607586388222058,-2.2895262520658997,1.1977997322008895
36586.84605475,0.21897980570793152,0.1850649118423462,0.4353976547718048,0.9978227054896275,-2.2439514663261018,1.1732858301836804
36586.86619075,0.27695778012275696,0.312028706073761,0.36246395111083984,1.0391741350784518,-2.215454845429403,1.1628722416039254
36586.88632775,0.37411028146743774,0.3666635751724243,0.2575461268424988,1.0865040595394062,-2.2150245428297746,1.17788591135576
36586.906463750005,0.43589866161346436,0.3837931156158447,0.14181895554065704,1.1390893077782998,-2.2511463991617684,1.227642954128408
36586.926599750004,0.4877435564994812,0.3754144310951233,0.061893343925476074,1.1917513949101146,-2.3250667852699007,1.315618815973494
36586.946736750004,0.5027514696121216,0.37286823987960815,-0.03648006543517113,1.239173332629431,-2.4346582808872204,1.4413996495933545
36586.96687275,0.46139004826545715,0.43918484449386597,-0.13621819019317627,1.2773447745789546,-2.5982994409126534,1.623635071579272
36586.98700875,0.4420693814754486,0.28028202056884766,-0.22665834426879883,1.3003318874952388,-2.791290468267429,1.8390691287039784
36587.00714575,0.37618979811668396,0.12200123071670532,-0.2655225992202759,1.3125909200474508,-2.9319203243058123,2.006340755112924
36587.02728175,0.31324082612991333,0.0240170955657959,-0.2313227653503418,1.3254230222563161,-2.980670788087336,2.085353214918986
36587.04741775,0.21925310790538788,0.011943697929382324,-0.243568554520607,1.3404973148437056,-2.9768470662874433,2.1123672537227565
36587.06755475,0.06159995496273041,-0.1586974859237671,-0.19898974895477295,1.3561878865480963,-2.9547057824097687,2.1193624417362105
36587.08769075,-0.045378461480140686,-0.19181472063064575,-0.03815650939941406,1.3733143374205303,-2.902933848977433,2.0965080684552473
36587.107827750006,-0.10869476199150085,-0.3720701336860657,0.15885424613952637,1.3983535112587702,-2.771545123558753,1.9965441996304545
36587.127963750005,-0.2027229517698288,-0.19157695770263672,-0.0037183761596679688,1.4255377808944911,-2.6132552137816654,1.871824381368065
36587.148099750004,-0.2432280331850052,-0.25522440671920776,-0.08335268497467041,1.4523230373082059,-2.4784656253187465,1.7691741558543725
36587.16823675,-0.31556203961372375,-0.2708613872528076,-0.019630610942840576,1.480297848360094,-2.248444785428849,1.5702068644195197
36587.18837275,-0.25177842378616333,-0.27713972330093384,-0.23653972148895264,1.5059743475985374,-1.8248071103368424,1.1735973991053819
36587.20850875,-0.23971149325370789,-0.1944441795349121,-0.22052204608917236,1.5186448669997654,-1.1002540345147673,0.470533357269525
36587.22864575,-0.24176563322544098,-0.1878073811531067,-0.10178166627883911,1.5019729744332238,-0.38088940739014376,-0.23141376266662284
36587.24878175,-0.2154940962791443,-0.23999947309494019,0.012998998165130615,1.4619817972498952,-0.05297974287419163,-0.5439656959261433
36587.26891875,-0.11035279184579849,-0.1342639923095703,0.0942537784576416,1.412717891472468,0.08258750071177076,-0.6630164775532786
36587.28905475,-0.09438912570476532,-0.0007405877113342285,0.0983249694108963,1.359936154181545,0.150289612360832,-0.7118353287186796
36587.309190750006,-0.12161289155483246,0.20133811235427856,0.14287793636322021,1.3110074578308972,0.19902097192454138,-0.7376360771146533
36587.329327750005,-0.12335245311260223,0.13405489921569824,0.27527809143066406,1.2667686189300653,0.23360415683338312,-0.7436622752756855
36587.349463750004,-0.028021350502967834,0.04116398096084595,0.34881848096847534,1.2221332975754213,0.252801875797258,-0.7290715475247291
36587.36959975,-0.00023572146892547607,0.15367281436920166,0.29930931329727173,1.1780067796354303,0.2680184985330796,-0.7068128872527801
36587.38973675,-0.00980299711227417,0.22516292333602905,0.24662932753562927,1.1403683148731105,0.28772043683068665,-0.6865480470798535
36587.40987275,-0.013301283121109009,0.25025099515914917,0.21401375532150269,1.112440228785284,0.31360020781553044,-0.6704807924129237
36587.43000875,-0.004967182874679565,0.17768502235412598,0.2517963647842407,1.0873928414454193,0.3342552184091704,-0.6483512240556457
36587.45014575,0.06708884239196777,0.18574142456054688,0.1688075065612793,1.0654911778020792,0.3534638611215712,-0.6252303292101626
36587.47028175,0.12145930528640747,0.3047914505004883,0.13419488072395325,1.0497043666866823,0.3716936503077795,-0.6037612702576564
36587.49041875,0.1497032642364502,0.10852837562561035,0.04778468608856201,1.034479336344919,0.38211807610465126,-0.5789715999665439
36587.51055475,0.1271713376045227,0.1044769287109375,0.077278733253479,1.0174179403485784,0.3837004486626663,-0.5509598235794125
36587.530690750005,0.14587056636810303,0.13924485445022583,0.059306323528289795,1.0028276303442438,0.38391960301208494,-0.5252104350004116
36587.550827750005,0.3041057288646698,0.14777374267578125,-0.10393455624580383,0.9961945133941753,0.38900338650061006,-0.5082495448911467
36587.570963750004,0.34168580174446106,0.13764536380767822,-0.23899558186531067,0.9991837225539599,0.397575369873765,-0.5015769466765814
36587.59110075,0.14022794365882874,0.19117844104766846,-0.05393338203430176,1.0118991252745189,0.4085619618495637,-0.5012028671935134
36587.61123829167,0.01117272675037384,0.01605743169784546,0.020707905292510986,1.0316142669820283,0.42253187526409985,-0.5031622057079395
36587.63137429167,0.029354602098464966,-0.21189594268798828,0.04771167039871216,1.0448324925334458,0.43000160274151916,-0.49742702714202025
36587.65151129167,0.04432733356952667,-0.139892578125,-0.04005074501037598,1.0490363002235448,0.43272348615161604,-0.48614236947771156
36587.67164729167,-0.005497097969055176,-0.03926801681518555,-0.10013478994369507,1.0567890766360617,0.44345250006341785,-0.48109324273723536
36587.69178429167,-0.0726262778043747,-0.09914189577102661,-0.024097025394439697,1.0670340010525419,0.46057972087424875,-0.48116260618985857
36587.711920291666,-0.019707784056663513,-0.2650905251502991,0.04918861389160156,1.071840349026815,0.47978359587056113,-0.4824905779336763
36587.73205629167,0.037010982632637024,-0.21984630823135376,0.09423932433128357,1.071270617160899,0.5020850243925038,-0.485474518898769
36587.75219329167,0.03362789750099182,-0.07884114980697632,0.15177837014198303,1.0698998251857947,0.527362058466738,-0.48973670554881676
36587.77232929167,0.054429322481155396,0.019153952598571777,0.20788955688476562,1.072103596182306,0.5580479542102446,-0.4968676739796104
36587.79246529167,0.04084703326225281,0.09690159559249878,0.23659288883209229,1.0798560529855186,0.593921060986538,-0.5059472622974527
36587.81260229167,0.08516034483909607,0.07928735017776489,0.2210974097251892,1.087209320320927,0.624646839164354,-0.5097963542878411
36587.83273829167,0.138490229845047,0.013025641441345215,0.1475169062614441,1.0867656510208141,0.6397161699808037,-0.5017176889551516
36587.85287529167,0.21344999969005585,0.09303295612335205,0.02809131145477295,1.0793211058465613,0.6362310182880971,-0.48140972175493363
36587.87301129167,0.30374875664711,0.15975677967071533,-0.13306081295013428,1.0732387274271404,0.6265166844743182,-0.4613632382890168
36587.89314729167,0.41959112882614136,0.035080909729003906,-0.2713465690612793,1.0719053052164678,0.6182500450769226,-0.4501636318614652
36587.913284291666,0.3329809308052063,-0.10774153470993042,-0.34996938705444336,1.0692959730097988,0.606646815084817,-0.4435333870585802
36587.93342029167,0.1933087259531021,0.03905200958251953,-0.34134864807128906,1.0736062417417767,0.6014844247369963,-0.44643494968306524
36587.95355729167,0.16729819774627686,-0.07043701410293579,-0.15662795305252075,1.0815188760573744,0.5997643928521871,-0.45294481905010586
36587.97369329167,0.11434929072856903,-0.08087426424026489,-0.028853952884674072,1.084285207194491,0.5949795963659924,-0.45541522271645096
36587.99382929167,0.052388012409210205,-0.006898999214172363,0.033462584018707275,1.0892380402912187,0.5919143188410627,-0.4566873596002485
36588.01396629167,0.001943141222000122,-0.0004830360412597656,0.1769658327102661,1.09882979422948,0.5922425630276694,-0.45699916591227296
36588.03410229167,0.03687392175197601,-0.0772600769996643,0.23105990886688232,1.1090802359115137,0.59406782977161,-0.45463126261514347
36588.05423929167,0.10866175591945648,-0.16639631986618042,0.2189701795578003,1.1141536557009069,0.5951630054215089,-0.4488068133956658
36588.07437529167,0.05936451256275177,-0.03452885150909424,0.2345927357673645,1.125499611273232,0.6072344215397268,-0.45012928197967145
36588.09451129167,0.021647602319717407,0.03910636901855469,0.27591872215270996,1.1479492120783117,0.6327926681665906,-0.46093333322909774
36588.11464829167,0.01727105677127838,-0.10668838024139404,0.27473288774490356,1.1648978002081078,0.6501741380315316,-0.46354134506875944
36588.134784291666,0.02379685640335083,-0.0024890899658203125,0.19056078791618347,1.1740302225485653,0.6561669396715823,-0.4553039816788158
36588.15492129167,0.016388967633247375,0.18530911207199097,0.1682451367378235,1.1992132774557478,0.685061707722216,-0.46564001886739115
36588.17505729167,0.05340731143951416,-0.19809699058532715,0.27222034335136414,1.2358263478795288,0.7437329232526065,-0.49900466554025386
36588.19519329167,0.19829630851745605,-0.714133083820343,0.3066982328891754,1.242010281111022,0.7685566355393321,-0.49910289372349603
36588.21533029167,0.41217467188835144,0.08106416463851929,-0.12405741214752197,1.2288001231066037,0.7589673035249623,-0.47017469593705224
36588.23546629167,0.43946582078933716,0.7465606331825256,-0.24938005208969116,1.249948548782046,0.7868980111257665,-0.48020194058376925
36588.25560329167,0.29709887504577637,-0.08748620748519897,0.16142135858535767,1.2900115757861095,0.8525487546933292,-0.5271851296659513
36588.27573929167,0.1981041133403778,-1.102795124053955,0.3589366674423218,1.3041067873426555,0.9205070612689442,-0.5754976050170972
36588.29587629167,-0.028560206294059753,-0.27073848247528076,0.055952996015548706,1.3056554491276056,1.0049204110902428,-0.6404649509986745
36588.31601229167,-0.2430126816034317,0.4616003632545471,-0.09181201457977295,1.3245111021318678,1.1404121755827916,-0.758483573764649
36588.336148291666,-0.1671171635389328,0.032111167907714844,-0.06561630964279175,1.331814308397873,1.2190016519007405,-0.825339229644795
36588.356285291666,0.2373180240392685,0.2694045901298523,-0.21951371431350708,1.336386470787936,1.2508990587996074,-0.8509866392883667
36588.37642129167,0.26756882667541504,-0.07019466161727905,-0.145578071475029,1.3433883649260074,1.3169141849548305,-0.9121284507685552
36588.39655829167,0.01808774471282959,-0.060413897037506104,0.012588724493980408,1.350887415256767,1.3935270494077698,-0.9817023953993682
36588.41669429167,-0.00021606683731079102,-0.021419227123260498,-0.23184214532375336,1.3505757581004403,1.3938031912748592,-0.9786805464496727
36588.43683029167,0.09833408892154694,0.14997273683547974,-0.37881994247436523,1.3433134914168647,1.314959121568223,-0.9096167938448803
36588.45696729167,-0.033956438302993774,0.12785571813583374,-0.02481524646282196,1.3389925374742557,1.2638903465322249,-0.8741351153307128
36588.47710329167,-0.041338831186294556,-0.3987487554550171,0.27596449851989746,1.333182671852022,1.2451135258867334,-0.868010469174305
36588.49724029167,-0.11818476021289825,-0.12496066093444824,0.13156896829605103,1.3213477860874623,1.2289441419791975,-0.8626212938619843
36588.51737629167,-0.12217661738395691,0.1716994047164917,0.04667234420776367,1.3103903409647575,1.2076835439340645,-0.855324940936335
36588.53751229167,-0.014109522104263306,0.17674756050109863,0.18691205978393555,1.3041711729898517,1.2003733082523265,-0.8626198306800367
36588.557649291666,0.02340066432952881,-0.041230618953704834,0.21764349937438965,1.2980196884195572,1.2033190554170436,-0.878451192754701
36588.577785291665,-0.04792296886444092,0.011878252029418945,0.1563359647989273,1.2928308507144761,1.224167203342183,-0.9096043403790467
36588.59792229167,0.046777114272117615,0.06895869970321655,0.022301718592643738,1.29021993757705,1.2666875011301795,-0.9620448271035139
36588.618058750006,0.06718602776527405,0.11537998914718628,-0.09688371419906616,1.2848292630738178,1.294088189353001,-1.004929037534871
36588.638195750005,0.14762356877326965,-0.06885802745819092,-0.01157890260219574,1.2781845959324059,1.3160660239445376,-1.0474342964807501
36588.658331750004,0.13394534587860107,-0.3810856342315674,0.018299341201782227,1.2662464628437011,1.3397369496016007,-1.0918033192326089
36588.67846775,-0.018433183431625366,-0.04855501651763916,-0.05690865218639374,1.2493346033741628,1.338229749943498,-1.111340560828165
36588.69860475,0.0220947265625,0.1959044337272644,-0.16567885875701904,1.2351895596770517,1.3191162018973925,-1.11549588302693
36588.71874075,0.05396372079849243,0.3418928384780884,-0.1665167212486267,1.229969849908761,1.3114868835773354,-1.1310819276518413
36588.73887775,0.044558167457580566,-0.041950762271881104,0.06255827844142914,1.2277142854261422,1.3017091060048465,-1.1418142602669017
36588.75901375,0.02461796998977661,-0.2590603232383728,0.2148725390434265,1.2202843648481387,1.2612622406899907,-1.1182494919884383
36588.77915075,-0.023856937885284424,-0.046399056911468506,0.14388369023799896,1.2094672517392622,1.2064618370680051,-1.0767299002240391
36588.79928675,-0.04852217435836792,0.29444026947021484,0.006061360239982605,1.2084863068731977,1.191929596605875,-1.0695690828174298
36588.81942275,-0.07822829484939575,0.16147243976593018,-0.035244643688201904,1.2156933749683911,1.204675808467795,-1.0859858442572383
36588.839559750006,-0.11356070637702942,0.14803069829940796,-0.24575889110565186,1.2281508298473753,1.2423617973182095,-1.1264610001407538
36588.859695750005,-0.017190635204315186,0.13838040828704834,-0.42102760076522827,1.2463060537423167,1.3346458059035795,-1.2222815249104217
36588.879832750004,0.11562329530715942,-0.21809524297714233,-0.3861543536186218,1.2596365637202431,1.4740940389837403,-1.3675023006449474
36588.89996875,0.12903106212615967,-0.292610764503479,-0.33394020795822144,1.2605624275361758,1.6064786623961989,-1.5093839922736159
36588.92010475,0.036865442991256714,-0.41070276498794556,-0.2656424045562744,1.2555885288004907,1.661660215042903,-1.5808930832356938
36588.94024175,-0.07953202724456787,-0.1424654722213745,-0.3248324394226074,1.2506163138271094,1.6380327947763662,-1.5798244191897803
36588.96037775,-0.10663095116615295,-0.02791762351989746,-0.3199000358581543,1.2475761869913844,1.5536308558934058,-1.5229756530310645
36588.98051475,-0.03497859835624695,0.06948429346084595,-0.3859953284263611,1.244341066485867,1.4183194604970477,-1.4201833347099144
36589.00065075,-0.02281460165977478,0.2650099992752075,-0.42202889919281006,1.2398026804687725,1.276592169144449,-1.3114475556165868
36589.02078775,-0.09319865703582764,0.2588925361633301,-0.3414399027824402,1.2375132941313116,1.1535886588513353,-1.2197186461401486
36589.04092375,-0.22744211554527283,0.08028626441955566,-0.13532070815563202,1.2341646363436614,1.0070280590223193,-1.1042171499454652
36589.061059750005,-0.1836075484752655,-0.08274757862091064,-0.06256149709224701,1.2197883521180615,0.8305604812394194,-0.959557545001551
36589.081196750005,-0.136715829372406,-0.1886855959892273,-0.012927442789077759,1.1903990875044301,0.6507892630029051,-0.811624770920065
36589.101332750004,-0.1752716600894928,-0.003263413906097412,0.0170687735080719,1.1485539680558134,0.48715432506050055,-0.6775523157723613
36589.12146975,-0.22046765685081482,0.10097306966781616,-0.005531728267669678,1.1043311115957655,0.35332178161515326,-0.5698998120499963
36589.14160575,-0.19360090792179108,-0.11746257543563843,-0.08289334177970886,1.0621351819453055,0.24819416764511065,-0.4881686368747297
36589.16174275,-0.21566322445869446,-0.0563088059425354,0.007130861282348633,1.0200288911119824,0.15784143401466527,-0.41824597596317303
36589.18187875,-0.261077344417572,-0.021837830543518066,0.10378795862197876,0.9797632922353182,0.0820132449063893,-0.3575935225574977
36589.20201475,-0.1788526028394699,-0.03534257411956787,0.2005164623260498,0.9329876920787429,0.012669393235319458,-0.2992696762155889
36589.22215175,-0.039524003863334656,-0.29646509885787964,0.08972430229187012,0.8753601876644187,-0.0446776154289366,-0.24948878547287204
36589.24228775,-0.07015454769134521,-0.19377011060714722,0.03608185052871704,0.8062054175024824,-0.09542485945183837,-0.20588188767426369
36589.26242475,-0.08837240934371948,-0.0830870270729065,-0.039276063442230225,0.7329491999791891,-0.1383752326483997,-0.17066911225579662
36589.282560750005,-0.10731986165046692,0.09016668796539307,-0.08019733428955078,0.6677287899663308,-0.1731577478660994,-0.14250603742145249
36589.302697750005,0.017980903387069702,-0.03764045238494873,-0.13276618719100952,0.6068155355064009,-0.20184276964039521,-0.12070351595006644
36589.322833750004,0.0650470107793808,-0.1711370348930359,-0.07371222972869873,0.5335181589656671,-0.22966687484792112,-0.10209326903392264
36589.34296975,0.06073204427957535,-0.14083486795425415,-0.03758227825164795,0.45058205610812535,-0.25697647337475066,-0.08718771284266975
36589.36310675,0.05315031111240387,-0.040965139865875244,-0.07532155513763428,0.3665241081394995,-0.2840080632087244,-0.0774232633469956
36589.38324275,0.061531856656074524,-0.03515434265136719,-0.057288289070129395,0.2865616017455982,-0.3122272594310291,-0.0731210157882528
36589.40337975,0.05897493660449982,-0.03985878825187683,-0.033184051513671875,0.21106393379248578,-0.34180140066014847,-0.07315916190582966
36589.42351575,0.017942316830158234,-0.04762411117553711,-0.010835587978363037,0.14459060028427484,-0.371018364588936,-0.07641518920868369
36589.44365275,-0.016670987010002136,-0.17965686321258545,0.07386386394500732,0.08284325595919063,-0.39896757505203384,-0.08030906895401692
36589.46378875,-0.10446332395076752,-0.2655393183231354,0.13185662031173706,0.018549875007287234,-0.42554523493079893,-0.08314671237934805
36589.48392575,-0.05648283660411835,-0.17690591514110565,0.07398581504821777,-0.04186258731369922,-0.44949817962978883,-0.08561862484780003
36589.504061750005,-0.04090188443660736,-0.2451053261756897,0.07097333669662476,-0.09258861372998298,-0.4695052029437194,-0.08808300810797999
36589.524197750005,-0.04476544260978699,-0.22929272055625916,0.04022061824798584,-0.1371009630510773,-0.48689446699317807,-0.09006560369224316
36589.544334750004,-0.031194105744361877,-0.29345929622650146,0.09040915966033936,-0.17939928549511072,-0.5013656431223683,-0.09140010467610869
36589.56447075,0.07692115753889084,-0.35498449206352234,0.01023954153060913,-0.2244954192745402,-0.512552735304113,-0.09389223506702053
36589.58460775,0.09440915286540985,-0.20782971382141113,-0.021754682064056396,-0.2668003613692722,-0.5202399096601241,-0.09794934349938035
36589.60474341667,0.15202811360359192,-0.19263973832130432,-0.03096216917037964,-0.3048531863704098,-0.5246531579309569,-0.10439484267619638
36589.62488041667,0.1502075493335724,-0.17393723130226135,-0.020731687545776367,-0.34263520326627794,-0.5262315085096644,-0.11322391911501477
36589.64501641667,0.1531037986278534,-0.0727185606956482,-0.0039861202239990234,-0.37668378175799694,-0.5252300456543387,-0.12380893747460611
36589.66515341667,0.17206469178199768,-0.02111983299255371,0.056348979473114014,-0.40695474155527944,-0.5229413490095274,-0.13490419640158216
36589.685289416666,0.19034436345100403,0.03829929232597351,0.11488568782806396,-0.43261984691480526,-0.5186111281015223,-0.14588952654634987
36589.70542541667,0.1843010038137436,0.033196836709976196,0.12766820192337036,-0.4564751241405653,-0.5124934636763872,-0.15618388992317028
36589.72556241667,0.18071702122688293,0.11453557014465332,0.16377460956573486,-0.47715733758002626,-0.5036912952916105,-0.16417069498831618
36589.74569841667,0.17334671318531036,0.16376769542694092,0.20455485582351685,-0.49166749050350445,-0.49157031844740634,-0.16933737304467875
36589.76583541667,0.10491444170475006,0.15709230303764343,0.24482572078704834,-0.5010811918545075,-0.47729152846589096,-0.17171597900924515
36589.78597141667,0.07590751349925995,0.163161039352417,0.25420427322387695,-0.508337903991041,-0.46181347926581606,-0.17097671127567424
36589.80610841667,0.06292328238487244,0.1606743335723877,0.2555760145187378,-0.5147770072805906,-0.4457026671526748,-0.16738802000198888
36589.82624441667,0.04801936447620392,0.20096677541732788,0.23238450288772583,-0.5189611572391345,-0.429006124684358,-0.1620587541968035
36589.84638041667,0.008251681923866272,0.21565404534339905,0.24589067697525024,-0.519830455437782,-0.413000331425484,-0.15583297351472558
36589.86651741667,-0.004573345184326172,0.16801106929779053,0.22477024793624878,-0.5200296596572013,-0.39880751755007826,-0.1492063826026507
36589.88665341667,0.030547454953193665,0.17355623841285706,0.1721915602684021,-0.5206555888660277,-0.38731367271944744,-0.1433695512193671
36589.906790416666,0.05457497388124466,0.2110232710838318,0.14477312564849854,-0.5176953350252455,-0.3773943096801358,-0.13902262301557608
36589.92692641667,0.043921053409576416,0.17651888728141785,0.13442373275756836,-0.5121250286981404,-0.3687223364919632,-0.13651095518775044
36589.94706341667,0.04162124544382095,0.12876185774803162,0.10509967803955078,-0.5075936781821659,-0.36138058214916624,-0.13604490799328478
36589.96719941667,0.040807031095027924,0.12130704522132874,0.07644826173782349,-0.5041496213256136,-0.35483313575897785,-0.13771268731393335
36589.98733641667,0.010338611900806427,0.1343681514263153,0.07385551929473877,-0.4998507302581917,-0.34759170060260464,-0.1406201148486133
36590.00747241667,-0.01785169541835785,0.12039846181869507,0.07306581735610962,-0.4953448779486046,-0.3395324392970099,-0.14383970363463547
36590.02760841667,-0.0499284565448761,0.10468751192092896,0.07485318183898926,-0.4928601087145035,-0.3318430855222967,-0.14686362915454004
36590.04774541667,-0.08148035407066345,0.14143788814544678,0.0685877799987793,-0.4903422086705992,-0.32547582610490716,-0.1495186705946422
36590.06788141667,-0.06786565482616425,0.14727619290351868,0.06149846315383911,-0.4851323548322441,-0.32032586918919054,-0.15134038717191198
36590.08801841667,-0.06046198308467865,0.1190023124217987,0.06757926940917969,-0.47891483262992096,-0.3162766904769002,-0.15227489906551578
36590.10815441667,-0.03510469198226929,0.06234338879585266,0.012409508228302002,-0.4745389807628953,-0.3121079888600427,-0.15201203505515462
36590.128291416666,-0.012836143374443054,0.08103117346763611,-0.03738665580749512,-0.4713898969292612,-0.30760485338756577,-0.15057680224984418
36590.14842741667,0.01885157823562622,0.08778885006904602,-0.06726682186126709,-0.4677132954464174,-0.30275160633772363,-0.14862900097893178
36590.16856441667,0.024244189262390137,0.0928751528263092,-0.08230501413345337,-0.4638479069529974,-0.2974843229796681,-0.14643084347914853
36590.18870041667,0.01929105818271637,0.06252118945121765,-0.07041996717453003,-0.46187449162274036,-0.29200334646716,-0.14398415517954685
36590.20883641667,0.020379364490509033,0.07723632454872131,-0.05383157730102539,-0.46176591788952664,-0.286536764048487,-0.14134741352761038
36590.22897341667,0.026790864765644073,0.0726340115070343,-0.04605972766876221,-0.4621173156187434,-0.28175735220657705,-0.13884480563668034
36590.24910941667,0.04378192126750946,0.05584079027175903,-0.031809210777282715,-0.46222916276782505,-0.27771307619966074,-0.1365898209003869
36590.26924641667,0.04423290491104126,0.028320014476776123,-0.021913528442382812,-0.4625292359933206,-0.27423361520931683,-0.134417319967096
36590.28938241667,0.043315768241882324,-0.018844157457351685,0.00042754411697387695,-0.4639611797237888,-0.271185406885793,-0.13253243826032557
36590.30951941667,0.03941594809293747,-0.035613685846328735,0.005494058132171631,-0.4660781704042924,-0.26883862944556663,-0.131010040259233
36590.329655416666,0.018471986055374146,-0.049180030822753906,0.023518800735473633,-0.46838683569016487,-0.2674941220425674,-0.12958407533526695
36590.349792416666,-0.00839708000421524,-0.07534870505332947,0.044192731380462646,-0.46996054799397974,-0.26779080734190414,-0.12810226535807964
36590.36992841667,-0.02534438669681549,-0.08787268400192261,0.06405258178710938,-0.47017911705444204,-0.2699206747485605,-0.1267592456958023
36590.39006441667,-0.024369224905967712,-0.10373073816299438,0.060386478900909424,-0.4682677267033759,-0.2728101921588786,-0.12532427517257327
36590.41020141667,-0.026006042957305908,-0.10647395253181458,0.03485971689224243,-0.4643349866207403,-0.2759132653661724,-0.1237977894673371
36590.43033741667,-0.056330010294914246,-0.12513428926467896,0.03177577257156372,-0.45954392936841343,-0.278355615437608,-0.12184920871534943
36590.45047441667,-0.09392306953668594,-0.1064119040966034,0.02167564630508423,-0.45423922648086573,-0.27965123094550554,-0.11890141395320103
36590.47061041667,-0.1190631315112114,-0.06498318910598755,0.02718937397003174,-0.44769383665123513,-0.27889148158032084,-0.11428700933860796
36590.49074741667,-0.14568737149238586,-0.06086111068725586,0.024486958980560303,-0.4406110013312113,-0.2759791470090165,-0.10762298554163269
36590.51088341667,-0.16558769345283508,-0.04435831308364868,0.03920513391494751,-0.43507592588264743,-0.27228876274519614,-0.09971064096210897
36590.53102041667,-0.19424927234649658,-0.013067632913589478,0.0454135537147522,-0.4304759668601297,-0.26899641672830543,-0.09124398192759811
36590.551156416666,-0.1945657879114151,-0.0074014365673065186,0.03951746225357056,-0.4271482853556509,-0.2673799973465864,-0.08289674776265313
36590.571292416666,-0.19151023030281067,0.021708637475967407,0.03340727090835571,-0.42512469010389964,-0.2675254063630486,-0.07460855727919391
36590.59142941667,-0.20727264881134033,0.06244620680809021,0.07193541526794434,-0.4253461626273997,-0.2695080096705241,-0.06578294807658414
36590.61156429167,-0.20247511565685272,0.046512991189956665,0.026034295558929443,-0.4274444474494404,-0.27284768614373706,-0.05627738934363822
36590.63170129167,-0.1747177392244339,0.055371373891830444,0.014764726161956787,-0.43275706046267653,-0.27781193231141366,-0.04631832801911299
36590.65183729167,-0.14307406544685364,0.07355108857154846,-0.008314907550811768,-0.4412042421744651,-0.2843849510931165,-0.03631394885071599
36590.67197429167,-0.13236451148986816,0.06247398257255554,-0.04434770345687866,-0.45254006910567973,-0.2925517222889056,-0.02635834669087323
36590.69211029167,-0.12005016207695007,0.06695404648780823,-0.06296330690383911,-0.4672420783648175,-0.3026323333981856,-0.016346101492913837
36590.71224729167,-0.11385843902826309,0.11334061622619629,-0.0627778172492981,-0.48256400382985465,-0.31557480598885773,-0.007237889337090143
36590.732383291666,-0.10518607497215271,0.15453049540519714,-0.00787651538848877,-0.49822830830467657,-0.331673937247843,0.0008767958865863554
36590.752520291666,-0.04216716066002846,-0.07842975854873657,-0.04878675937652588,-0.5195329279990112,-0.34981816180000463,0.008147034968994013
36590.77265629167,-0.0719149187207222,0.10247200727462769,-0.08195894956588745,-0.5446849739513023,-0.36957961361673725,0.015325878801952367
36590.79279229167,-0.04556651413440704,4.881620407104492e-05,-0.05864483118057251,-0.5704254931516958,-0.3904014655866238,0.0234113769958798
36590.81292929167,0.01355649158358574,0.05203670263290405,-0.12361252307891846,-0.5969399204737209,-0.41338683281497124,0.031121175532433678
36590.83306529167,0.04639758914709091,0.05261760950088501,-0.13169264793395996,-0.6204862212105272,-0.43922032230677427,0.036453981410461335
36590.85320229167,0.06376858055591583,0.023279786109924316,-0.11068052053451538,-0.6393064519169139,-0.4659613344232006,0.04083145161205069
36590.87333829167,0.06295622885227203,-0.044475018978118896,-0.058753252029418945,-0.6557092505096973,-0.49172233416677813,0.04656814505879051
36590.89347529167,0.10117965191602707,-0.021760523319244385,-0.05069786310195923,-0.6715808508876021,-0.5142636316391296,0.05538625166364207
36590.91361129167,0.14656078815460205,-0.04340469837188721,-0.08883482217788696,-0.6874793589876919,-0.5322606059724638,0.06717855979244416
36590.93374829167,0.20115649700164795,0.004606127738952637,-0.13425302505493164,-0.7030299458859206,-0.5468499102376253,0.07950941868027694
36590.953884291666,0.18655207753181458,0.012062013149261475,-0.099051833152771,-0.7201637709104329,-0.5604983212902859,0.08939701172566351
36590.974020291666,0.1799614429473877,0.011244714260101318,-0.11107295751571655,-0.7396266040365129,-0.575073480942447,0.09559654123433071
36590.99415729167,0.17975813150405884,0.010186314582824707,-0.021466612815856934,-0.7583860184069066,-0.5923282014780598,0.09718512173476507
36591.01429329167,0.21044579148292542,-0.014777719974517822,0.046489596366882324,-0.7741219544318199,-0.6109637272683883,0.0955609505045173
36591.03443029167,0.2137075960636139,-0.0702747106552124,0.06561696529388428,-0.7855399453642535,-0.6292542238300171,0.09203701506313912
36591.05456629167,0.15009737014770508,-0.12424683570861816,0.11668229103088379,-0.7951497097392849,-0.6461033301466144,0.08883981400574938
36591.07470329167,0.13281255960464478,-0.10106933116912842,0.14881765842437744,-0.8017323462373812,-0.659533214857371,0.08888814550291504
36591.09483929167,0.12016730010509491,-0.127266526222229,0.1572551131248474,-0.8060832717259085,-0.6695155231718709,0.09242783454858822
36591.11497629167,0.07662300765514374,-0.06659179925918579,0.1692976951599121,-0.8096519873512048,-0.6763801008756996,0.099235573065285
36591.13511229167,0.06272479146718979,-0.07642698287963867,0.15627223253250122,-0.813654799957642,-0.6807292097125175,0.10809586040474396
36591.15524929167,0.049238935112953186,0.0011826753616333008,0.09162038564682007,-0.8180586656935918,-0.683893625597185,0.11742879771417951
36591.175385291666,0.06925968080759048,0.017130374908447266,0.062140822410583496,-0.8215213934224056,-0.687806454760308,0.12506501748415239
36591.195521291666,0.06147915869951248,0.006280779838562012,0.05909526348114014,-0.8253161703350836,-0.6924301116938747,0.13115839005212712
36591.21565829167,0.05880536884069443,-0.03720366954803467,0.03852266073226929,-0.8308844745557726,-0.6969002342009223,0.13637375880055433
36591.23579429167,0.01787450909614563,0.005349218845367432,0.06833463907241821,-0.8357009173170635,-0.7012157849402301,0.1417543834622007
36591.25593129167,0.001592785120010376,-0.02302604913711548,0.06007426977157593,-0.8402538169121414,-0.7062577354720468,0.14712404203998378
36591.27606729167,0.0072068870067596436,-6.490945816040039e-05,0.040908098220825195,-0.8460400829008197,-0.7106927820539694,0.15312016248246207
36591.29620429167,0.0010020732879638672,0.047250330448150635,0.05120271444320679,-0.8496183142127534,-0.7139658530082845,0.15972846728382828
36591.31634029167,-0.03253961354494095,0.023200571537017822,0.0848231315612793,-0.852004783175119,-0.7176280210244893,0.16679492967024284
36591.33647729167,-0.07669465988874435,0.1674666404724121,0.12114709615707397,-0.8552638005087495,-0.7226540970852587,0.17442961655540876
36591.35661329167,-0.012440621852874756,0.11108005046844482,0.1010282039642334,-0.8624189477220845,-0.7271628898658467,0.18312060177427608
36591.37675029167,-0.022867634892463684,0.20180493593215942,0.19286787509918213,-0.8753518454733602,-0.7304293181320233,0.19500653324582035
36591.396886291666,-0.07313822209835052,0.3379322290420532,0.200029194355011,-0.8859637284538832,-0.7380625461480353,0.20703169929667997
36591.417023291666,-0.025829777121543884,0.2572287917137146,0.1282670497894287,-0.8972344057921281,-0.7524865120996874,0.21618228616659452
36591.43715929167,0.0028449296951293945,0.24131733179092407,0.13183695077896118,-0.9119441917313827,-0.7704558900841969,0.22369962115266934
36591.45729529167,0.01670345664024353,0.25161415338516235,0.14936590194702148,-0.9249189157784045,-0.7942824575497429,0.2279306959028238
36591.47743229167,0.05669201910495758,0.19668924808502197,0.02880328893661499,-0.9316814072434032,-0.8230608679520689,0.227313235825169
36591.49756829167,0.06914006173610687,0.01216048002243042,0.02692282199859619,-0.9398944159094147,-0.8505218741096188,0.22582290137218605
36591.51770529167,0.15938007831573486,-0.003472268581390381,-0.06596571207046509,-0.9495949399508553,-0.8759586897715778,0.22233743799326686
36591.53784129167,0.08850069344043732,0.09723120927810669,9.721517562866211e-05,-0.9532299427815762,-0.9029566875486289,0.21372546116775737
36591.55797829167,0.07982178032398224,-0.1617146134376526,0.07701349258422852,-0.958500658449812,-0.9249370979096342,0.2073083158037309
36591.57811429167,0.048659369349479675,-0.0662226676940918,0.0929250717163086,-0.9719802072262509,-0.9411828458335992,0.2052548895409587
36591.59825129167,0.04510682821273804,0.059908390045166016,0.02086162567138672,-0.9784776967055991,-0.9566963956599963,0.2033196905154602
36591.61838866667,0.08925220370292664,-0.013866722583770752,0.0002511739730834961,-0.9811594992854871,-0.9710453878151751,0.20041668761529033
36591.63852566667,-0.03166847676038742,0.04015570878982544,0.17450928688049316,-0.9877112119267334,-0.98432915790482,0.20004501522010448
36591.65866166667,0.0764729455113411,0.003991127014160156,0.16121482849121094,-0.9963051616958518,-0.9988969418257925,0.20077664279743437
36591.67879866667,0.133469820022583,-0.048262178897857666,0.08540308475494385,-1.0060228711943402,-1.0136034110568994,0.20032885650465745
36591.69893466667,0.07847791165113449,-0.0506632924079895,0.13615846633911133,-1.0197817855642524,-1.026938287187133,0.20018530414554347
36591.719070666666,0.03548242896795273,-0.03336691856384277,0.08474987745285034,-1.0336503106056802,-1.0375903153663002,0.2036062047083773
36591.739207666666,0.10102830827236176,0.05877101421356201,0.007804214954376221,-1.0409911661410252,-1.0497115976476645,0.20450484359276286
36591.75934366667,0.12990374863147736,-0.04255586862564087,0.03938406705856323,-1.039922058802404,-1.0638105040418688,0.2030997817448377
36591.77948066667,0.13610956072807312,-0.18883508443832397,0.07233721017837524,-1.0380730623588903,-1.0732237728700473,0.20497839993081565
36591.79961666667,0.13131946325302124,-0.11670541763305664,0.0773976743221283,-1.0404787035052694,-1.0779801135394247,0.21014490625079651
36591.81975366667,0.10356772691011429,-0.07702547311782837,0.06902021169662476,-1.0362568491094017,-1.0826904528291146,0.21443472057843566
36591.83988966667,0.10165206342935562,-0.16166770458221436,0.15431594848632812,-1.0276661573073893,-1.0861545698543869,0.22008017033363272
36591.86002666667,0.05486994981765747,-0.1692391037940979,0.16597729921340942,-1.017918840877933,-1.086826109001224,0.22880926688361838
36591.88016266667,0.1075969934463501,-0.04018580913543701,0.0911150574684143,-1.0026876723498863,-1.090493058553583,0.2354161381710705
36591.90029966667,0.11834195256233215,-0.06492149829864502,0.07971066236495972,-0.9794307722927773,-1.098864506130651,0.23790519574458782
36591.92043566667,0.13657861948013306,-0.2396870255470276,0.1698441505432129,-0.9572540056872976,-1.1040566227974158,0.24288857611217177
36591.940571666666,0.11513571441173553,-0.2191416621208191,0.13396316766738892,-0.941153114504665,-1.1057257575794572,0.25095832487888425
36591.960708666666,0.18336763978004456,-0.16037356853485107,0.1205679178237915,-0.9209498955235776,-1.108079779562083,0.25735691728347154
36591.98084466667,0.19035211205482483,-0.13071978092193604,0.20384645462036133,-0.8916665201473366,-1.1145647443735263,0.26079351218411306
36592.00098166667,0.13775387406349182,-0.37132728099823,0.37771081924438477,-0.8603820661243257,-1.1169919115615903,0.2695699547762419
36592.02111766667,0.1248176097869873,-0.45104146003723145,0.4416086673736572,-0.8356559436498537,-1.1117805268037537,0.2892661891692574
36592.04125466667,0.28442132472991943,-0.32159143686294556,0.3862731456756592,-0.8066846266678988,-1.1013271440124026,0.3152277356368764
36592.06139066667,0.2558826804161072,0.016430139541625977,0.4202476143836975,-0.7561561494539641,-1.1018381032135924,0.33648972500600155
36592.08152766667,0.26646068692207336,-0.11235803365707397,0.615963339805603,-0.6878334051999656,-1.1108638145826244,0.35696202813106415
36592.10166366667,0.1488107442855835,-0.4494515657424927,0.7258790731430054,-0.63638003117609,-1.1164929551077647,0.38817019869474234
36592.12180066667,0.3326275646686554,-0.17365461587905884,0.5237472653388977,-0.590880787908249,-1.1209781318371945,0.4253753992749497
36592.14193666667,0.4627026319503784,0.059414297342300415,0.42430007457733154,-0.5215600367494766,-1.1385737922985335,0.4569397237293661
36592.16207366667,0.46760550141334534,0.034874796867370605,0.5815708637237549,-0.42434001109002956,-1.1730518178879004,0.48536600180637257
36592.182209666666,0.35297146439552307,-0.048435330390930176,0.6195007562637329,-0.31985249652064546,-1.2172330420718729,0.5203647193269493
36592.20234666667,0.4991791844367981,-0.05816274881362915,0.5435628890991211,-0.21234278124772105,-1.2684355580188373,0.5620435770717488
36592.22248266667,0.6187900900840759,-0.00011780858039855957,0.5619606971740723,-0.09432806944138462,-1.3350951897401202,0.6090360309341667
36592.24261966667,0.6096071004867554,0.08102977275848389,0.6229592561721802,0.025063143168737922,-1.4215349843565912,0.6649980529550955
36592.26275566667,0.6180124878883362,-0.182348370552063,0.6605499982833862,0.1274907184630169,-1.5190847457307168,0.7338809012769002
36592.28289166667,0.6658496260643005,-0.48099467158317566,0.6728360652923584,0.1912972207015741,-1.607646256851841,0.8112374878863869
36592.30302866667,0.6658806204795837,-0.3941618502140045,0.6118108034133911,0.22161562180121538,-1.6841049537283992,0.8924674924434634
36592.32316466667,0.6797805428504944,-0.3523954749107361,0.37349867820739746,0.2317347571080239,-1.7569205656047706,0.9754363071530162
36592.34330166667,0.6822226047515869,-0.44635605812072754,0.1154550313949585,0.2221067783865625,-1.8244844076752094,1.0565401023238945
36592.36343766667,0.6427070498466492,-0.3348309099674225,-0.0831402838230133,0.1980468643866513,-1.8914677025276365,1.133536429138593
36592.38357466667,0.5849900841712952,-0.3482518792152405,-0.29710355401039124,0.16612193118897844,-1.9674420215082553,1.2079314717134662
36592.403710666666,0.49569642543792725,-0.46622586250305176,-0.35768672823905945,0.12545733337608783,-2.046582399788535,1.2788735502646131
36592.42384766667,0.5113520622253418,-0.7041786313056946,-0.5397516489028931,0.07745393403285186,-2.116766487180824,1.34405043898937
36592.44398366667,0.6289113759994507,-0.964960515499115,-0.8458538055419922,0.028359939611217955,-2.162364118378971,1.4003773052168922
36592.46412066667,0.5460532903671265,-0.8864471316337585,-1.0679800510406494,-0.00787666113918323,-2.192591468540159,1.4469276690313675
36592.48425666667,0.3718547224998474,-0.7377731800079346,-1.2723973989486694,-0.023297754327516663,-2.2358045461951366,1.4823518966510436
36592.50439366667,0.19054585695266724,-0.608475387096405,-1.095766544342041,-0.027317298930542366,-2.2920769388339846,1.5082344789871371
36592.52452966667,0.057240843772888184,-0.34002137184143066,-0.8935397267341614,-0.03137173658610732,-2.352928343697951,1.5255318015797967
36592.54466666667,0.027612149715423584,-0.41966304183006287,-0.6874415874481201,-0.04191351151844107,-2.3991354215534506,1.533296853311991
36592.56480266667,-0.02423936128616333,-0.4282885789871216,-0.5804329514503479,-0.05308463840505982,-2.4255844379739258,1.530877387519211
36592.58493966667,-0.06256002187728882,-0.3647966980934143,-0.4593156576156616,-0.061597726009728106,-2.445229583432206,1.5217136486464131
36592.60507566667,-0.028913140296936035,-0.37405872344970703,-0.2806914448738098,-0.06529776839308708,-2.464601342035501,1.509583294266112
36592.625211625,-0.010079264640808105,-0.48867785930633545,-0.14680778980255127,-0.06362620035688643,-2.4772193291853353,1.4966219488002657
36592.645348625,0.024451255798339844,-0.5043913722038269,-0.06410115957260132,-0.05688178758733613,-2.47624595732331,1.4841516467087061
36592.665484625,0.05370217561721802,-0.478242963552475,-0.03183881938457489,-0.04648175549140027,-2.462094596165864,1.4717818696599378
36592.685621625,0.03967958688735962,-0.42132383584976196,-0.005123667418956757,-0.03336007689534714,-2.437863929703063,1.4591250917307825
36592.705757625,0.029915213584899902,-0.3914147615432739,0.010728836059570312,-0.017621155904050542,-2.407169282067456,1.4456623096983392
36592.725894625,0.05894500017166138,-0.3376474976539612,0.010286733508110046,0.0009602687149674529,-2.374735145738274,1.4312576342777168
36592.746030625,0.08199220895767212,-0.29426896572113037,0.028208255767822266,0.022398525752496935,-2.343528511541277,1.4156457675119651
36592.766167625,0.10504209995269775,-0.2549237608909607,0.042092978954315186,0.046988625911181525,-2.315231322291,1.3990863624943537
36592.786303625006,0.1252639889717102,-0.22923773527145386,0.0707455724477768,0.07463402337800697,-2.2902577424164576,1.3819525833496147
36592.806440625005,0.12361723184585571,-0.150520458817482,0.10464310646057129,0.10585692291024862,-2.2703840482823403,1.364971924112686
36592.826576625004,0.1328340768814087,-0.11783750355243683,0.13729697465896606,0.14075977127682576,-2.255621158591779,1.3488779888761524
36592.846713625004,0.15615659952163696,-0.06020818650722504,0.1610671877861023,0.1790743673333197,-2.245150469383001,1.3339124386169978
36592.866849625,0.14377838373184204,-0.017719879746437073,0.19010788202285767,0.22012213703207875,-2.2384500041729134,1.3205982024086544
36592.886986625,0.13828963041305542,0.045259565114974976,0.22528089582920074,0.26344518801027944,-2.235107653368816,1.3099251737906603
36592.907122625,0.14623665809631348,0.07265061140060425,0.23864516615867615,0.30812437851100466,-2.232793159251266,1.3016501801356775
36592.927259625,0.13236206769943237,0.11018145084381104,0.2489859163761139,0.35298552426919555,-2.2289103201510754,1.294889408296525
36592.947395625,0.09966975450515747,0.16769474744796753,0.24867212772369385,0.3966744213954837,-2.223222170258736,1.2895385275386595
36592.967532625,0.09445375204086304,0.21203339099884033,0.25194671750068665,0.4383217711706734,-2.216528992848567,1.2858570695094327
36592.987668625,0.12318670749664307,0.22977092862129211,0.25379741191864014,0.4768562532215602,-2.2073399665243234,1.2826720468724209
36593.007805625,0.1103176474571228,0.262239933013916,0.2618615925312042,0.5114511555292363,-2.1949873352974896,1.2790194824333188
36593.027941625005,0.10587078332901001,0.313987672328949,0.2427656352519989,0.5422801647568878,-2.1823667862775915,1.2760839008702978
36593.048077625004,0.07003277540206909,0.33270275592803955,0.242487370967865,0.5690701154417307,-2.170461551567037,1.2744598456352185
36593.068214625004,0.05571770668029785,0.3409472703933716,0.22876431047916412,0.5914815295840409,-2.1591631254490555,1.2745408005042083
36593.088350625,0.06586778163909912,0.3937581777572632,0.20740041136741638,0.6100725044250761,-2.1519781020282225,1.2782962004779392
36593.108487625,0.06487452983856201,0.3555002808570862,0.19213485717773438,0.6237610883475051,-2.1470502674721867,1.2844903724200027
36593.128623625,0.06524020433425903,0.34857428073883057,0.16376842558383942,0.6315487036950442,-2.1414969009534284,1.2913689105793016
36593.148760625,0.093563973903656,0.3655305504798889,0.11343851685523987,0.634449005549327,-2.1385580193056968,1.3004319496860581
36593.168896625,0.12777268886566162,0.3236820101737976,0.08098907768726349,0.6331880401142628,-2.13959104010921,1.3115650816227493
36593.189033625,0.1412886381149292,0.2569810152053833,0.07711148262023926,0.6272515991979624,-2.1415731481714513,1.323263342070673
36593.209169625,0.108623206615448,0.2038332223892212,0.046516627073287964,0.6166048063792355,-2.1386908952560013,1.3324096461832233
36593.229306625006,0.01899123191833496,0.1994708776473999,0.013049721717834473,0.6030928093742881,-2.1304194240838186,1.3387929366311035
36593.249442625005,-0.03224384784698486,0.23015117645263672,-0.07290130853652954,0.5897522719932433,-2.123946492623468,1.3465735324362897
36593.269579625005,-0.03926771879196167,0.2115265130996704,-0.0873197466135025,0.5756701082022077,-2.121191164366077,1.3569695948376113
36593.289715625004,-0.0038561224937438965,0.1557719111442566,-0.1217140406370163,0.5588089258637293,-2.118657735846206,1.3681171433963284
36593.309852625,0.04811745882034302,0.09265899658203125,-0.11307203769683838,0.5367312149559621,-2.109615187667174,1.3765625166430262
36593.329988625,0.13414013385772705,0.08055266737937927,-0.18864037096500397,0.510628045203462,-2.096108669540448,1.3823624202891738
36593.350125625,0.2144870162010193,0.05807653069496155,-0.2535719871520996,0.482718914639002,-2.0838154537983815,1.3866680618980034
36593.370261625,0.2472670078277588,0.006508171558380127,-0.28676551580429077,0.45428520710807896,-2.0738930382183036,1.3893347915387406
36593.390398625,0.23377370834350586,-0.04074370861053467,-0.2840936779975891,0.42566947171005265,-2.063140516588286,1.3898635795072167
36593.410534625,0.21107202768325806,-0.06364619731903076,-0.2979152202606201,0.39779695045485913,-2.05011540472825,1.3883716698701392
36593.430671625,0.16313564777374268,-0.09220010042190552,-0.322424054145813,0.3716820531280509,-2.0344071916975177,1.3847857093516807
36593.450807625006,0.07336091995239258,-0.04975101351737976,-0.3139338493347168,0.3486092661839092,-2.0173714707463595,1.3793168437864478
36593.470944625005,-0.0049509406089782715,-0.041047751903533936,-0.2885008454322815,0.3297968730968132,-2.001093874089653,1.372285474325463
36593.491080625005,-0.0761880874633789,-0.011792987585067749,-0.22714763879776,0.3147271964566126,-1.9852702300605536,1.363599934282881
36593.511216625004,-0.12439316511154175,0.002338886260986328,-0.14991885423660278,0.3017584649379495,-1.967012928147291,1.3526095534847165
36593.531353625,-0.1312187910079956,0.021590083837509155,-0.1059466004371643,0.29033059461335486,-1.9460971231289452,1.3403672780650897
36593.551489625,-0.09860777854919434,0.1152833104133606,-0.10415363311767578,0.2812380045618649,-1.9288205622470447,1.3289787068757393
36593.571626625,-0.055013418197631836,0.12484821677207947,-0.08641624450683594,0.27634712340623846,-1.9204827128002635,1.3198968977789252
36593.591762625,-0.0018764734268188477,0.053598761558532715,-0.04034513235092163,0.2751830571060744,-1.9183397769101047,1.3126856909578213
36593.611899,0.038514137268066406,0.009759008884429932,-0.01687532663345337,0.2769738582205671,-1.918314927892805,1.3062933028455295
36593.632035,0.07024675607681274,-0.00322115421295166,-0.0049593448638916016,0.2817572873011103,-1.9199157875611343,1.3005695142435747
36593.652172,0.06131339073181152,0.004285603761672974,-0.012607097625732422,0.28966075558592685,-1.9240157290953912,1.2957292291705687
36593.672308,0.035173773765563965,0.039551377296447754,-0.007895290851593018,0.3007000428875838,-1.9314665152984383,1.2923751917907615
36593.692445,0.0168612003326416,0.05588299036026001,-0.007145583629608154,0.3140888014704512,-1.941196459234603,1.2904206763877186
36593.712581,0.010873854160308838,0.054141879081726074,-0.01803278923034668,0.32912519964856757,-1.9517061829997175,1.289066545825648
36593.732718,-0.008434712886810303,0.09839701652526855,-0.02603328227996826,0.345640320815434,-1.9631312522591393,1.288166750031648
36593.752854000006,-0.008236408233642578,0.12667816877365112,-0.022397756576538086,0.36334985432379524,-1.9758406849005505,1.2878673978020656
36593.772991000005,-0.006725966930389404,0.13405531644821167,-0.013073503971099854,0.38170615286243115,-1.9885189835817103,1.2877765263401253
36593.793127000004,0.005971968173980713,0.17366033792495728,-0.013847500085830688,0.40024990036894026,-2.001162572104621,1.2877488082977058
36593.813264000004,0.028641462326049805,0.18534749746322632,-0.02019578218460083,0.4190800899154853,-2.0147871085704416,1.2880056604195131
36593.8334,0.05245482921600342,0.17757362127304077,-0.013706952333450317,0.43762485398658885,-2.0275544892898236,1.2880738814651516
36593.853537,0.08189141750335693,0.18083703517913818,-0.02515590190887451,0.4561168807283064,-2.0383672375843873,1.2875113108631606
36593.873673,0.104861319065094,0.16456559300422668,-0.033521026372909546,0.4752373348979836,-2.046308329327977,1.2859729507483721
36593.89381,0.1270434856414795,0.18423041701316833,-0.05840235948562622,0.49546906487895426,-2.0518589761949206,1.2836917985571181
36593.913946,0.16600841283798218,0.22098320722579956,-0.07517105340957642,0.5174666470671122,-2.0579082423458606,1.2816577237827638
36593.934083,0.20509350299835205,0.24575215578079224,-0.08521102368831635,0.5404659932403614,-2.065501650626527,1.2801369378709448
36593.954219,0.23276591300964355,0.2572132349014282,-0.0783819854259491,0.5631710657805015,-2.075315410855035,1.2793062057317415
36593.974356,0.23862028121948242,0.2430819869041443,-0.07615315914154053,0.5848294094920122,-2.0873047764298955,1.2788943993124755
36593.994492000005,0.1993546485900879,0.22523510456085205,-0.04669672250747681,0.6046589129870567,-2.099639276913113,1.2777129637926634
36594.296539,0.0008631348609924316,-0.23323187232017517,0.1454814076423645,0.48818460649260476,-2.2427288820463964,1.1249506130656417
36594.316676,-0.026385903358459473,-0.25478479266166687,0.10913515090942383,0.4647539768708737,-2.2529373718334855,1.1192991141765836
36594.336812,-0.05632030963897705,-0.2278633415699005,0.08215194940567017,0.44573140572170294,-2.2693899603202476,1.1175416200498713
36594.356949,-0.07981318235397339,-0.2202131450176239,0.060431718826293945,0.43245333564821886,-2.2952446856023023,1.12031475923633
36594.377085,-0.09496986865997314,-0.25332096219062805,0.05498534440994263,0.4245227647634985,-2.3288586198115033,1.126387545806068
36594.397222,-0.11180919408798218,-0.32932552695274353,0.0714646577835083,0.42008906969139953,-2.3641287428324946,1.1330444849207304
36594.437495000006,-0.14837580919265747,-0.33840256929397583,0.04787707328796387,0.41928917912429353,-2.4341441187902717,1.1476202019544806
36594.417358,-0.14735925197601318,-0.33142685890197754,0.05812180042266846,0.41857360570165947,-2.3994615194778874,1.140197686471576
36594.477768000004,-0.15233802795410156,-0.3673713505268097,0.037549734115600586,0.4238796817003284,-2.495021624214301,1.1594724574969677
36594.497904,-0.16150212287902832,-0.3557869493961334,0.033009350299835205,0.4283236073380561,-2.522594207246851,1.164744841251964
36594.518041,-0.17148751020431519,-0.34974291920661926,0.04306221008300781,0.4341200681247465,-2.5482857252061084,1.1699833159629343
36595.1019995,0.12162277102470398,-0.050825536251068115,-0.01388007402420044,0.8022901623665037,-1.8593112307183233,0.7206517540222224
36595.1221355,0.14209210872650146,-0.032850444316864014,-0.004275679588317871,0.7940927227548733,-1.7864728482911614,0.6566023339877692
36595.1422725,0.14516350626945496,-0.05073285102844238,0.026826202869415283,0.7819345611070357,-1.7142624130522293,0.5914531114053219
36595.1624085,0.16266685724258423,-0.08553063869476318,0.06276226043701172,0.7630464091174921,-1.6409619647382927,0.5249138122623512
36595.1825455,0.2003858983516693,-0.05650383234024048,0.06348222494125366,0.7399138122515406,-1.5702243594557475,0.46026249273443504
36595.2026815,0.2068566381931305,-0.08120006322860718,0.081642746925354,0.7121728596158708,-1.502218885106212,0.3987865502687219
36595.222818500006,0.24353203177452087,-0.1425328254699707,0.09546160697937012,0.6741538735240358,-1.4355329214932717,0.34040745455317684
36595.242954500005,0.272455632686615,-0.10962873697280884,0.035122692584991455,0.6288141371280486,-1.3712438006592071,0.28519312933096364
36595.263091500005,0.3131781220436096,-0.14641565084457397,-0.0014815330505371094,0.5819203442312882,-1.3115357833197736,0.23339560250804378
36595.283227500004,0.3321298360824585,-0.16425156593322754,0.023563802242279053,0.5313264141725852,-1.256183124241128,0.18437681889564264
36595.3033645,0.3165796995162964,-0.26643919944763184,0.09679657220840454,0.47077513132655713,-1.2028607411466214,0.13798363015223108
36595.3235005,0.2924143671989441,-0.19950327277183533,0.10221850872039795,0.4009019073427783,-1.153835945502031,0.09509469232869351
36595.0818625,0.10752764344215393,-0.05713707208633423,-0.013115137815475464,0.8085753083538533,-1.9347037868608583,0.784313412268689
36595.3637735,0.25738558173179626,-0.054928719997406006,0.023385345935821533,0.2745258271883662,-1.068658604483024,0.019784778630858653
36595.3839105,0.17620578408241272,0.04036746919155121,0.07540255784988403,0.22099491886214387,-1.0304853300936325,-0.010569449278507285
36595.4040465,0.1787615716457367,-0.15589211881160736,0.15825021266937256,0.16294315914308014,-0.9948117388888819,-0.03639882043165392
36595.4241835,0.19073966145515442,-0.17366544902324677,0.2249240279197693,0.0941125641396563,-0.9612824448797431,-0.05817144944501499
36595.3436375,0.26972857117652893,-0.05950680375099182,0.02939450740814209,0.3334968895274807,-1.1094676441974758,0.055629152040096795
36595.444319500006,0.1533229500055313,-0.015195023268461227,0.15224099159240723,0.029395384226023523,-0.9294060409399317,-0.07626605900710823
36595.464455500005,0.12673363089561462,0.06618478149175644,0.09484028816223145,-0.024363282750564166,-0.8993066346966975,-0.09167182842206437
36595.484592500005,0.10220163315534592,-0.0065373703837394714,0.1418432593345642,-0.07609931411787255,-0.8708116713759957,-0.10435558434527704
36595.504728500004,0.10308811068534851,0.014931440353393555,0.1738295555114746,-0.12555011408696276,-0.8427079028302968,-0.11373260792398339
36595.5248655,0.0892389565706253,0.03334501385688782,0.17506247758865356,-0.17158194439473004,-0.8153037800709895,-0.12043843140473816
36595.5450015,0.07140151411294937,-0.02571268379688263,0.178855299949646,-0.21786169945045092,-0.7897791636764037,-0.12564305355711353
36595.6054115,0.0775647908449173,0.019060522317886353,0.08099871873855591,-0.33615758244399946,-0.7291144358136978,-0.13933153701782836
36595.62554741667,0.09067000448703766,-0.11117345094680786,0.09157252311706543,-0.363021511457287,-0.7116195749762031,-0.14564060506129262
36595.64568441667,0.07102081179618835,-0.1312187910079956,0.14308953285217285,-0.3886067727561722,-0.6957021519500967,-0.15240287804374839
36595.66582041667,0.09718228876590729,-0.0747060775756836,0.1387832760810852,-0.41124274590097665,-0.6812666231323904,-0.15919718990079573
36595.68595741667,0.08889864385128021,-0.06865677237510681,0.17511016130447388,-0.4315187754539896,-0.6683476380899132,-0.16570469017680317
36595.706093416666,0.09016980230808258,-0.11852574348449707,0.1634582281112671,-0.45118315335964065,-0.6577586207171945,-0.17182971241722764
36595.72623041667,0.09248504042625427,-0.04888126254081726,0.1350279450416565,-0.4669751884597979,-0.6485471338938792,-0.17698569209507242
36595.74636641667,0.11660686135292053,-0.07390516996383667,0.14422249794006348,-0.47825104633537036,-0.6400816578714981,-0.18135365898210135
36595.76650341667,0.11909419298171997,-0.061372578144073486,0.12959367036819458,-0.48898290361465996,-0.6322057131934077,-0.18458786337242128
36595.78663941667,0.08918394148349762,-0.07042697072029114,0.12300020456314087,-0.4990416336063329,-0.6258853380106025,-0.18757938626236428
36595.80677641667,0.08671285212039948,-0.031482964754104614,0.06789571046829224,-0.5064208434341793,-0.6215401865002675,-0.1906796438233456
36595.82691241667,0.112201988697052,0.029800474643707275,0.040865421295166016,-0.5076728012398501,-0.6174182503064212,-0.19345470597835604
36595.84704941667,0.09996108710765839,-0.053670287132263184,0.050128817558288574,-0.5054451628181752,-0.6135585148676528,-0.1961950604725976
36595.86718541667,0.047335535287857056,-0.05849680304527283,0.057108163833618164,-0.503219682578238,-0.6112903241085215,-0.19918641675543258
36595.88732241667,0.07164983451366425,-0.0759996771812439,0.0320591926574707,-0.5010449200583432,-0.6097359466233941,-0.20179408260807888
36595.90745841667,0.053994640707969666,-0.03584355115890503,0.02313905954360962,-0.4972619130811295,-0.6074738611689079,-0.20376440633476506
36595.927595416666,0.04780784249305725,-0.04930698871612549,-0.009681642055511475,-0.49080333904362516,-0.6044199096039459,-0.2054240899707599
36595.94773141667,0.013156116008758545,-0.06642231345176697,0.04620552062988281,-0.4832522016352893,-0.6014683824231076,-0.20686453848743774
36595.96786841667,0.018558144569396973,-0.02313971519470215,0.052495479583740234,-0.4764993722149855,-0.5979079698168117,-0.20742714223096534
36595.98800441667,-0.0020093023777008057,0.004925817251205444,0.04172557592391968,-0.46796140828707816,-0.5940612786332372,-0.2076660746443392
36596.00814141667,-0.0014662891626358032,0.05446654558181763,0.05320537090301514,-0.4545562958942661,-0.5899116402854101,-0.20809949027012953
36596.02827741667,-0.030917540192604065,-0.04415753483772278,0.08215224742889404,-0.4414093389437051,-0.5865510102488735,-0.209165232719129
36596.04841441667,-0.05884504318237305,0.0326196551322937,0.086098313331604,-0.4261958701755844,-0.5835232615266538,-0.21095965637021152
36596.06855041667,-0.07925103604793549,0.006110131740570068,0.11425226926803589,-0.4069955493367434,-0.5805839788927941,-0.21315313773501246
36596.08868741667,-0.07956695556640625,-0.07524469494819641,0.09354037046432495,-0.3877442465360325,-0.5775560741220569,-0.21559927119134462
36596.10882341667,-0.09183764457702637,-0.06769755482673645,0.0907444953918457,-0.3656795548035486,-0.5733737523869105,-0.2177914642104746
36596.12896041667,-0.09997375309467316,-0.07010146975517273,0.06848865747451782,-0.3381030173789537,-0.5674562862618406,-0.21993229511644807
36596.149096416666,-0.09832195937633514,-0.10333192348480225,0.10965901613235474,-0.3066472734946478,-0.5604909066135072,-0.2223564753910449
36596.16923241667,-0.09744477272033691,-0.12079095840454102,0.10088598728179932,-0.2743984388298991,-0.552557871968027,-0.22417679551005643
36596.18936941667,-0.09252625703811646,-0.07744817435741425,0.05034357309341431,-0.23713506489402797,-0.5430218427713839,-0.22556175482147836
36596.20950541667,-0.0833008736371994,-0.11025160551071167,0.04645198583602905,-0.19799906327389302,-0.5328519542095815,-0.2274747816750884
36596.22964241667,-0.0774444043636322,-0.19005416333675385,0.015810132026672363,-0.16357621594897245,-0.5233134876290078,-0.2305608306934062
36596.24977841667,-0.09479525685310364,-0.09807294607162476,-0.02381730079650879,-0.12953226779050508,-0.5141033863886976,-0.23543887920174125
36596.26991541667,-0.07575464248657227,-0.0877673402428627,-0.03522616624832153,-0.09344219414657694,-0.5050824895676197,-0.24221300561972586
36596.29005141667,-0.08181872963905334,-0.03289296105504036,-0.0663449764251709,-0.056467266908248284,-0.49553096325419743,-0.2498407301441154
36596.31018841667,-0.08374416828155518,0.012628002092242241,-0.04748636484146118,-0.01741742598319147,-0.4852728732720834,-0.2581411648064253
36596.33032441667,-0.09384405612945557,-0.10415521264076233,0.02339315414428711,0.016817258239979465,-0.4773987943074935,-0.26698936511321203
36596.35046141667,-0.07693004608154297,-0.09457780420780182,0.005866408348083496,0.04821736438329674,-0.47140891230470705,-0.2763319008774144
36596.370597416666,-0.055536240339279175,-0.09778011590242386,-0.015147149562835693,0.08039177135489581,-0.4648797688420752,-0.28608407783127004
36596.390734416666,-0.05620160698890686,-0.07671984285116196,-0.0655410885810852,0.11695172109995,-0.4557023989068779,-0.2965257952861758
36596.41087041667,-0.06758880615234375,-0.07809080183506012,0.0053348541259765625,0.15688114099651826,-0.4453202916024469,-0.30827599794612265
36596.43100741667,-0.06531688570976257,-0.15862774848937988,0.03008824586868286,0.19390340667950565,-0.43554734060873523,-0.32026700022270355
36596.45114341667,-0.06575518846511841,-0.1181892603635788,0.026612162590026855,0.22828607687034186,-0.4245938176678028,-0.33141027563651954
36596.47128041667,-0.07143843173980713,-0.12484914064407349,0.016020894050598145,0.26118210335139197,-0.4124246016780242,-0.34184373172260707
36596.49141641667,-0.06839808821678162,-0.06912395358085632,0.01594686508178711,0.2953981433118662,-0.3996019862744029,-0.3521854192725465
36596.51155341667,-0.03337454795837402,-0.0899457037448883,0.022446036338806152,0.33152998324335603,-0.38655237121235425,-0.3631451182295534
36596.53168941667,-0.023968935012817383,-0.1249990165233612,0.031087040901184082,0.36571940317349977,-0.37341685233886945,-0.37430820373464124
36596.55182641667,-0.0140305757522583,-0.13959583640098572,0.03758978843688965,0.3965819043725496,-0.36076520190611183,-0.3850020653689013
36596.57196241667,0.0058307945728302,-0.1247539222240448,0.03299820423126221,0.42550706029080526,-0.349226694217444,-0.3954375758792854
36596.592099416666,0.03282836079597473,-0.04836335778236389,-0.019618451595306396,0.4554052556034156,-0.3379615012548245,-0.40625310793402647
36596.612235125,0.04042413830757141,-0.017880111932754517,-0.051807940006256104,0.48910560603803666,-0.32576262396694694,-0.41819142810575205
36596.632372125,0.05884909629821777,-0.03657633066177368,-0.020016729831695557,0.5245139751637394,-0.3140336658789744,-0.43049247718385114
36596.652508125,0.07084858417510986,-0.05819982290267944,0.025628983974456787,0.5608645796526216,-0.3031688676716858,-0.44219924252297393
36596.672645125,0.06549730896949768,-0.10849040746688843,0.06333357095718384,0.5951560432962971,-0.2932825346538505,-0.45159280823511383
36596.692781125,0.03184226155281067,-0.14421486854553223,0.06713223457336426,0.6234917906456691,-0.2850298394958168,-0.45638559078449503
36596.712918125006,0.04587635397911072,-0.06772094964981079,0.022254645824432373,0.6468285266987867,-0.2785369163623928,-0.45693148463089206
36596.733054125005,0.060948848724365234,0.018708527088165283,-0.05080300569534302,0.6706842862603961,-0.27237622536230044,-0.45556492169793356
36596.753191125004,0.07186278700828552,0.04886424541473389,-0.08705151081085205,0.6992204564460247,-0.2638629540358546,-0.4549827454334871
36596.773327125,0.0760582983493805,0.035036444664001465,-0.07625824213027954,0.731417355351664,-0.2526620447673523,-0.45598915334400253
36596.793464125,0.0500980019569397,-0.021450817584991455,-0.01965487003326416,0.7618128118423109,-0.24308385656076442,-0.4556459026418529
36596.813600125,0.04618188738822937,-0.044781386852264404,-0.0032936930656433105,0.7835709759639101,-0.24006789122780992,-0.45062352632534775
36596.833737125,0.03084123134613037,-0.005658626556396484,-0.009462296962738037,0.7980636388850252,-0.24313662235509692,-0.44116825159837586
36596.853873125,0.03601890802383423,0.018824756145477295,-0.03093510866165161,0.8095753458927266,-0.24996370033111728,-0.42936745399693116
36596.874009125,0.043191611766815186,0.024299323558807373,-0.03708362579345703,0.8205169083288447,-0.2586740364703779,-0.4170784075183592
36596.894146125,0.04373183846473694,0.0005100369453430176,-0.02821934223175049,0.8314787787650799,-0.2680401525766271,-0.4053027633153441
36596.914283125,0.04043549299240112,-0.02354872226715088,-0.013824880123138428,0.8403378875578624,-0.2773686954595964,-0.3944232064299041
36596.934419125006,0.021845921874046326,-0.04891610145568848,-0.007267177104949951,0.8450734076974645,-0.2879833431258769,-0.3834094721076085
36596.954555125005,0.015574157238006592,-0.026796400547027588,-0.00023442506790161133,0.8458472553511204,-0.3010339866910618,-0.371161181677475
36596.974692125004,0.02101200819015503,0.015284359455108643,-0.014233112335205078,0.8473856955101234,-0.3130835639434821,-0.3602698341073096
36596.994828125,0.016356155276298523,0.015223324298858643,-0.03176307678222656,0.85228621676969,-0.32206747220619286,-0.35203191376135673
36597.014965125,0.0007452219724655151,0.00456082820892334,-0.02391880750656128,0.8585026321396816,-0.3301381485481585,-0.3444553201008555
36597.035101125,-0.005863204598426819,-0.004064500331878662,-0.0534895658493042,0.8633193397155678,-0.33866717510477157,-0.33655333410767757
36597.055238125,-0.019583240151405334,0.03247344493865967,-0.06266319751739502,0.8684659633288142,-0.3485574766200198,-0.32740094663350655
36597.075374125,-0.02949252724647522,0.002467930316925049,-0.11363452672958374,0.8774077629095263,-0.3583893776534151,-0.3178601062762778
36597.095511125,-0.0397799015045166,-0.06029355525970459,-0.13479411602020264,0.8881215352437735,-0.36895991942746637,-0.30704038434201886
36597.115647125,-0.03344161808490753,-0.04295206069946289,-0.15650153160095215,0.899484094701336,-0.3795887275999037,-0.2955784476513401
36597.135784125,-0.01337076723575592,-0.018080592155456543,-0.20748478174209595,0.9117210199616622,-0.38818424158003656,-0.28554387915928225
36597.155920125006,-0.003143414855003357,0.024003922939300537,-0.2035500407218933,0.9234476356535354,-0.3939792735156669,-0.2778570236933112
36597.176057125005,-0.004899576306343079,0.10908293724060059,-0.180742084980011,0.9360195136587042,-0.39577477138941036,-0.2731516933737101
36597.196193125004,0.0018302053213119507,0.13078546524047852,-0.14763963222503662,0.9496367773122187,-0.39316279614148836,-0.27151456053173867
36597.216330125004,0.0015467852354049683,0.1292070746421814,-0.10173141956329346,0.9608298475475616,-0.388476686071471,-0.2706587924055498
36597.236466125,0.01097935438156128,0.1416371464729309,-0.09244328737258911,0.9703946223214587,-0.3815573811102389,-0.2712194180914232
36597.256603125,0.016052141785621643,0.11276441812515259,-0.08447939157485962,0.9784583114454803,-0.37398000107727564,-0.2726264236138898
36597.276739125,0.02337627112865448,0.08881473541259766,-0.09241193532943726,0.9859456975577743,-0.36635030255356377,-0.2752644182111012
36597.296876125,0.029877617955207825,0.0117226243019104,-0.08146131038665771,0.9913765824319453,-0.36093462582775143,-0.2776362300213556
36597.317012125,0.06342907249927521,-0.04531353712081909,-0.0874757170677185,0.9943114021238652,-0.3576612965883956,-0.2806060570185626
36597.337149125,0.0625576376914978,-0.02404552698135376,-0.09313452243804932,0.9958480178877517,-0.3558471712542393,-0.28450038982121006
36597.357285125,0.06406636536121368,0.0060599446296691895,-0.05979442596435547,0.997646136889027,-0.3540608994907212,-0.2897711946666286
36597.377422125,0.06801187992095947,0.010935068130493164,-0.03883016109466553,0.9988147520985101,-0.3522312805839474,-0.29586476923092986
36597.397558125005,0.07148349285125732,0.01231694221496582,-0.013081610202789307,0.9978448135023555,-0.3508225441319084,-0.3016648394376857
36597.417695125005,0.07252824306488037,0.04416316747665405,0.007157444953918457,0.9957673915659014,-0.3498492583823514,-0.3062372761181069
36597.457968125,0.0914749801158905,0.03212767839431763,0.009981989860534668,0.9914955615286567,-0.3471945008140681,-0.3139633297350526
36597.478104125,0.10134458541870117,0.042676329612731934,0.012063801288604736,0.9891949375089983,-0.3460968935997657,-0.317495295334734
36597.498241125,0.11372998356819153,0.006536900997161865,0.02523261308670044,0.9864388757047311,-0.34563548120827214,-0.32068846108946164
36597.518377125,0.10630226135253906,0.03770041465759277,0.02815413475036621,0.9836603287836745,-0.345584732639002,-0.32403924645587806
36597.538514125,0.10692407190799713,0.03553211688995361,0.0290871262550354,0.9825565084730777,-0.34523230396544985,-0.3283234148727134
36597.558650125,0.10889449715614319,0.04272538423538208,0.036478638648986816,0.9822932661446736,-0.34556850335100514,-0.33240632562523975
36597.578787125,0.11233803629875183,0.03927457332611084,0.045565903186798096,0.9833070689934679,-0.3463433207672801,-0.33644904348785626
36597.598923125,0.11833393573760986,0.0428386926651001,0.05227118730545044,0.9850594164391274,-0.3476848106961459,-0.34029751234002376
36597.61906029167,0.11973632872104645,0.06391090154647827,0.05614328384399414,0.9890179828111281,-0.348513907790044,-0.3446947274973191
36597.63919629167,0.12199220061302185,0.05017954111099243,0.05772221088409424,0.9953546989771772,-0.34827118910269234,-0.35007203548410964
36597.65933329167,0.09784400463104248,0.05852478742599487,0.05808669328689575,1.0037055522512301,-0.34778217193638555,-0.3554697223872261
36597.67946929167,0.07793374359607697,0.04978543519973755,0.05909639596939087,1.0136185328520115,-0.3477116705792793,-0.36004350903268445
36597.699606291666,0.06563974916934967,0.008409380912780762,0.07163316011428833,1.0238123491341828,-0.3499127973635472,-0.36204115043161145
36597.71974229167,0.053863778710365295,-0.02144414186477661,0.04664647579193115,1.0347216968421835,-0.3556438640594595,-0.3604841076298425
36597.73987829167,0.05827069282531738,-0.10204195976257324,0.03676915168762207,1.0449053266845414,-0.36608891054957704,-0.3544747487409214
36597.76001529167,0.07791993021965027,-0.10824286937713623,0.002330183982849121,1.0547652893930612,-0.379283182334412,-0.34621964008136835
36597.78015229167,0.09040339291095734,-0.08127939701080322,-0.023483455181121826,1.0659806747077163,-0.39098207097443693,-0.33997955184045847
36597.80028829167,0.0812949538230896,0.015670061111450195,-0.039726972579956055,1.0788992524774292,-0.399979876417584,-0.3371043173437636
36597.82042429167,0.027103647589683533,0.11156421899795532,-0.033431410789489746,1.0952887959557138,-0.4063626582173848,-0.3372111757162385
36597.84056129167,-0.031821370124816895,0.11523419618606567,-0.0028825998306274414,1.1124243170515846,-0.41564855677969303,-0.33487559314371823
36597.86069729167,-0.07467211782932281,0.07641154527664185,0.01638689637184143,1.1272592983845435,-0.43263491449774033,-0.32519035247281464
36597.88083429167,-0.0919952541589737,-0.00480198860168457,0.00279998779296875,1.1390176458845,-0.4581695655920396,-0.30737752293213466
36597.90097029167,-0.1104813814163208,-0.06675922870635986,-0.04042753577232361,1.1473913668127722,-0.4904968735557723,-0.2835252141598757
36597.921107291666,-0.10823098570108414,-0.07191479206085205,-0.0866314172744751,1.1555668031199262,-0.5236937219272674,-0.2594316229380601
36597.94124329167,-0.13637171685695648,-0.08059245347976685,-0.11823076009750366,1.1663773657816767,-0.5537834065819098,-0.23896243453689614
36597.96138029167,-0.20052555203437805,-0.10429805517196655,-0.09996101260185242,1.1782306454035982,-0.5837941281070823,-0.21857065978284657
36597.98151629167,-0.23242560029029846,-0.14214932918548584,-0.08345773816108704,1.1876871449005963,-0.6153427297806328,-0.1962448106373444
36598.00165329167,-0.22864294052124023,-0.16435283422470093,-0.08993884921073914,1.1928170664490791,-0.6448928910312286,-0.17486338915342067
36598.02178929167,-0.22556224465370178,-0.11770504713058472,-0.1213621199131012,1.1961433939078132,-0.6677303088720528,-0.15871808876743923
36598.04192629167,-0.22322973608970642,-0.04206264019012451,-0.11970639228820801,1.1995903137394386,-0.6820974799100831,-0.14961276781776012
36598.06206229167,-0.22522780299186707,0.026179730892181396,-0.12603458762168884,1.2045148223641837,-0.6877170051212311,-0.14818794239697797
36598.08219929167,-0.21254722774028778,0.06827139854431152,-0.10286217927932739,1.2107225869953,-0.6861630648801259,-0.15345237267443887
36598.10233529167,-0.19112667441368103,0.04093390703201294,-0.0749991238117218,1.2151404740826193,-0.6792672392652176,-0.16398209840253347
36598.12247229167,-0.17518281936645508,0.023791790008544922,-0.05306181311607361,1.215077996995654,-0.6697976470503868,-0.17742108059733366
36598.142608291666,-0.16306619346141815,0.016723573207855225,-0.026492595672607422,1.2110587220250004,-0.6599389510493989,-0.19173133789416036
36598.162745291665,-0.1510954201221466,0.03282797336578369,-0.01087498664855957,1.2049284721284488,-0.6509249355370608,-0.2056075083934053
36598.18288129167,-0.13720504939556122,0.0429416298866272,0.006369203329086304,1.1989109613232725,-0.6426375304276848,-0.2191487065951715
36598.20301829167,-0.11949261277914047,0.00046384334564208984,0.025307178497314453,1.1923390245615968,-0.6356959958023414,-0.23171892513577
36598.22315429167,-0.10569184273481369,0.003520667552947998,0.042482852935791016,1.1849465676733182,-0.630586986486189,-0.2425728929833046
36598.24329129167,-0.1143292561173439,0.01724708080291748,0.04460453987121582,1.1790126210739114,-0.6260720130622376,-0.2524034527814716
36598.26342729167,-0.12722167372703552,0.023317456245422363,0.060236185789108276,1.1750682361804068,-0.6213936700420456,-0.2615493620786318
36598.28356429167,-0.13993364572525024,0.007746279239654541,0.07033839821815491,1.1726811682000973,-0.6165121479343647,-0.269691201304942
36598.32383729167,-0.17370332777500153,-0.019398927688598633,0.07121360301971436,1.1688422404333714,-0.6069742849108094,-0.28116658460305327
36598.605748291666,0.011275619268417358,-0.011174261569976807,0.07669931650161743,1.1807899175390755,-0.29083665299347167,-0.4258990083248088
36598.62588291667,0.033523932099342346,0.025547504425048828,0.06878554821014404,1.1892489736676966,-0.25829157434545646,-0.44149133462864065
36598.64601991667,0.009187161922454834,-0.06276130676269531,0.032106101512908936,1.1930199905006242,-0.22873501879839633,-0.4536584885491198
36598.66615591667,0.007173165678977966,0.008182525634765625,-0.05468308925628662,1.194195657024045,-0.19863562639828797,-0.46622507822929565
36598.68629291667,-0.04806987941265106,-0.01126396656036377,-0.11040198802947998,1.1955902710611916,-0.16333249406351527,-0.48448018504177776
36598.70642891667,-0.06569923460483551,-0.030683398246765137,-0.2122698426246643,1.1959371673158605,-0.12370575998639834,-0.5088210718069109
36598.726565916666,-0.08603110909461975,-0.15621638298034668,-0.200271874666214,1.1913002673471103,-0.08753236477980476,-0.532701140209598
36598.74670191667,-0.011154994368553162,-0.16966378688812256,-0.2415044903755188,1.1834162696811308,-0.05019164394205304,-0.560443526604452
36598.76683891667,0.016356348991394043,-0.11727142333984375,-0.20556941628456116,1.1756769696942575,-0.006163650642154177,-0.5965583498217394
36598.78697491667,0.018034547567367554,-0.17594099044799805,-0.151955246925354,1.164451976286714,0.035992820265841684,-0.6315814761746268
36598.80711191667,-0.014029204845428467,-0.11555802822113037,-0.11153221130371094,1.14850416340193,0.06927725517347151,-0.6580320174382087
36598.82724791667,-0.012916892766952515,-0.11973446607589722,-0.07680854201316833,1.131271991689503,0.10011774574828132,-0.6816085505044951
36598.84738491667,0.005267292261123657,-0.25275933742523193,0.06659922003746033,1.1069091854683124,0.11559052280975382,-0.6894806063507339
36598.86752091667,0.0524483323097229,-0.26020580530166626,0.09170925617218018,1.068221141805089,0.10449855137647114,-0.6713828702298485
36598.88765791667,0.1024402379989624,-0.266074538230896,0.09182506799697876,1.0096720097135867,0.06637125492851456,-0.6298776307998765
36598.90779391667,0.079263836145401,-0.013157963752746582,0.060164958238601685,0.9406612444539241,0.02162949167707603,-0.5850360135096806
36598.92793091667,0.09416481852531433,0.22751116752624512,0.026279449462890625,0.8758439881449399,-0.014913873863631296,-0.5486629586968562
36598.948066916666,0.11271259188652039,0.01799875497817993,0.11228466033935547,0.8097937158922938,-0.051337279392144226,-0.5143581771409624
36598.968203916666,0.0866881012916565,0.05581921339035034,0.1741538643836975,0.730843820854806,-0.09959774787102235,-0.4728949149709601
36598.98833991667,0.13062936067581177,-0.0012602806091308594,0.18979579210281372,0.6395549572147077,-0.15188668658014462,-0.4312844092785859
36599.00847691667,0.11227685213088989,0.10109668970108032,0.16240864992141724,0.5420124840813906,-0.20072497692775848,-0.39532688211311695
36599.02861291667,0.13988977670669556,0.1379053294658661,0.05185997486114502,0.4491844027342084,-0.23973644698200514,-0.3680362071334308
36599.04874991667,0.04697781801223755,-0.03209701180458069,0.021702826023101807,0.3633092293035057,-0.26981075376443603,-0.34679447196213287
36599.06888591667,0.07503718137741089,-0.18808293342590332,0.016626834869384766,0.27808817892636833,-0.29302820603465934,-0.3298660177350539
36599.08902291667,0.05370432138442993,-0.2747243642807007,0.00552743673324585,0.19209199946443206,-0.3098058293727483,-0.31640447790241716
36599.10915891667,0.05395123362541199,-0.25670453906059265,-0.04242807626724243,0.10361872813230388,-0.3209467947157897,-0.30605021814913563
36599.12929591667,0.003642469644546509,-0.22770468890666962,-0.06360852718353271,0.014010251744956442,-0.326968479207893,-0.29810605027156095
36599.14943191667,-0.03321078419685364,-0.08183442801237106,-0.02812129259109497,-0.06899547251192532,-0.3262919725575235,-0.2909086346291059
36599.169568916666,-0.03898590803146362,-0.2163987159729004,0.020715951919555664,-0.1493569376088339,-0.3217089889738829,-0.2833798987326205
36599.189704916666,0.018420785665512085,-0.1945851594209671,0.017173469066619873,-0.2330193413535457,-0.31332593905154177,-0.2754250977744703
36599.20984191667,0.030077427625656128,-0.14779731631278992,0.05035293102264404,-0.31554425060237823,-0.3017647893256371,-0.2672978778661048
36599.22997791667,0.030106201767921448,-0.06316933035850525,0.021188020706176758,-0.38933748516397454,-0.2862903089063104,-0.25825790860775283
36599.25011491667,0.040951311588287354,-0.11558648943901062,0.01610720157623291,-0.4521731255195951,-0.26757105904753914,-0.24823936184730286
36599.27025091667,0.06331595778465271,-0.16225823760032654,0.059433817863464355,-0.5106744457581504,-0.24658766183579517,-0.2371725680319252
36599.29038791667,0.04675024747848511,-0.14771634340286255,0.10410457849502563,-0.5646516974010017,-0.2235402133696222,-0.22468397925106692
36599.31052391667,0.05341452360153198,-0.08491390943527222,0.06387770175933838,-0.6101577427138095,-0.19885529253023645,-0.21118194558369296
36599.33066091667,0.055855005979537964,-0.06359750032424927,0.05113738775253296,-0.6441750105217885,-0.17347655525493863,-0.19810746707007046
36599.35079691667,0.0705297440290451,-0.0784904956817627,0.06695497035980225,-0.6701754807386111,-0.14919597758010425,-0.18679262471812874
36599.37093391667,0.06363293528556824,-0.21960926055908203,0.1591641902923584,-0.6928961633403119,-0.1257110061400625,-0.1757075795657839
36599.391069916666,0.07408424466848373,-0.11589592695236206,0.13799554109573364,-0.7148546375010372,-0.10465058757989604,-0.16575794200176402
36599.411206916666,0.05718587338924408,-0.07073372602462769,0.10194295644760132,-0.7302382864944796,-0.08433910432858652,-0.15632834695888173
36599.43134291667,0.06677626073360443,-0.009428322315216064,0.07745730876922607,-0.740284341549568,-0.06552894722716861,-0.1480746548227284
36599.45147991667,0.05361510068178177,-0.010397136211395264,0.10198920965194702,-0.7465542338891465,-0.04809799995176358,-0.140145084359164
36599.47161591667,0.03111477941274643,0.037249624729156494,0.09909015893936157,-0.7520441745050215,-0.03402146123370227,-0.13376810058924196
36599.49175191667,0.010217413306236267,0.07139772176742554,0.07240557670593262,-0.7568201392000542,-0.023389451664445296,-0.12934460262900427
36599.51188891667,0.008057847619056702,0.11291229724884033,0.015246093273162842,-0.7610113532343047,-0.01659481371557903,-0.12713183694509728
36599.53202491667,0.021112889051437378,0.07971906661987305,0.005071043968200684,-0.760976632872912,-0.010950105799020731,-0.12535566058460168
36599.55216191667,0.011096321046352386,-0.017593085765838623,0.05531597137451172,-0.7622510845755031,-0.006727842393928445,-0.12347960444087715
36599.57229791667,0.014958374202251434,0.03214716911315918,0.029120683670043945,-0.7663354408441934,-0.003326437306031105,-0.12155732877555443
36599.59243491667,0.014943957328796387,-0.003085315227508545,0.002781510353088379,-0.7720270243522852,9.297975639218358e-05,-0.11918726236956603
36599.612570916666,0.026732400059700012,0.054511845111846924,-0.03772705793380737,-0.7750836699480369,0.0035742702334242847,-0.11697626431807248
36599.632709875004,0.018968388438224792,-0.025425732135772705,0.0013069510459899902,-0.7758269925478226,0.007267980901969322,-0.11456945158026852
36599.652845875,0.029102720320224762,0.006492435932159424,0.02377188205718994,-0.7780355447318715,0.010019991326046538,-0.11266697223719573
36599.672982875,0.038419052958488464,-0.005782127380371094,0.027928948402404785,-0.7827040228237739,0.011938399739094137,-0.1114489110721411
36599.693118875,0.024550534784793854,0.03489959239959717,0.017409086227416992,-0.7884642072202803,0.012250230529303395,-0.11185851823403195
36599.713255875,-0.0022882670164108276,0.06362777948379517,0.04864668846130371,-0.7928521771003685,0.0101238617187297,-0.11411034387178862
36599.733391875,-0.001064009964466095,0.04273819923400879,0.04073148965835571,-0.7980626575340798,0.006252638746747505,-0.11666279930462435
36599.753528875,-0.011380575597286224,-0.031239032745361328,0.09161049127578735,-0.8040960788132485,0.0024106395048566973,-0.11714878892662899
36599.773664875,-0.02724943310022354,0.012181401252746582,0.08594930171966553,-0.8114571330908792,-0.0029827749203542226,-0.11709905531707593
36599.793801875,-0.02229180932044983,-0.015256822109222412,0.04534578323364258,-0.8153925539916744,-0.007034691682869459,-0.11476417559828327
36599.813937875006,-0.004694826900959015,-0.007173418998718262,0.026446163654327393,-0.8162663578173552,-0.009839752696352656,-0.11063922067820602
36599.834074875005,-0.0046676769852638245,-0.04578500986099243,0.03182864189147949,-0.815497101745632,-0.011251461927363558,-0.10478958684301473
36599.854210875004,-0.002122335135936737,-0.05119425058364868,-0.0028879642486572266,-0.8159312432899257,-0.011887374508735893,-0.09787236038740482
36599.874347875004,-0.004623107612133026,-0.025317072868347168,-0.02164006233215332,-0.8162233381000037,-0.011639828530380947,-0.09005164919014506
36599.894483875,-0.010976124554872513,-0.011595726013183594,-0.017868995666503906,-0.815038048897516,-0.010871774953134202,-0.08153395265654649
36599.914620875,0.00031016021966934204,0.005078256130218506,-0.005343198776245117,-0.8129990019204982,-0.009943346294743381,-0.07257715929227226
36599.934756875,0.0013729818165302277,0.032604336738586426,-0.010167419910430908,-0.8119128506175578,-0.00976006856678671,-0.06368446003831978
36599.954893875,-0.0032158643007278442,0.0759425163269043,0.02719932794570923,-0.8121522229788896,-0.011003466547769515,-0.054996349267434255
36599.975029875,-0.033699095249176025,0.13416045904159546,0.07714617252349854,-0.8112572272593699,-0.014505923784769182,-0.04631883029881644
36599.995166875,-0.06700465083122253,0.17646276950836182,0.15595316886901855,-0.8098992721033843,-0.02196945082049305,-0.037754398120019204
36600.015302875,-0.07613202929496765,0.17455965280532837,0.23009741306304932,-0.8109780096989155,-0.03319909243904247,-0.027331619022343646
36600.035439875,-0.14100365340709686,0.2889831066131592,0.3292958736419678,-0.8119120833260094,-0.04926230681364513,-0.013952499635125744
36600.055575875005,-0.20261110365390778,0.3967857360839844,0.5335198044776917,-0.8143332599641315,-0.07380974390084095,0.00216363586262822
36600.075712875005,-0.2875329256057739,0.5351755619049072,0.7477009892463684,-0.8228752744215005,-0.1097544987540018,0.022970637228882904
36600.095848875004,-0.29391419887542725,0.5337331295013428,0.8269283771514893,-0.8394818964144931,-0.15559011952907423,0.0543119138378096
36600.115985875,-0.17942488193511963,0.6215555667877197,0.7385967969894409,-0.8666622362378713,-0.21271187405564504,0.09507937159696558
36600.136121875,0.10524511337280273,0.5851613879203796,0.4432790279388428,-0.8965157519580604,-0.2823576967101447,0.13901400719879697
36600.156258875,0.4713556170463562,0.5147756338119507,0.04545778036117554,-0.9230817678410693,-0.3647464206657521,0.1778932101893505
36600.176394875,0.7145193219184875,0.19779348373413086,-0.1404564380645752,-0.9452260410896459,-0.45952191904120293,0.20495541520274138
36600.196531875,0.921085000038147,0.061292052268981934,-0.48840880393981934,-0.9629493674036239,-0.55952990709838,0.21852024946780466
36600.216667875,0.9337591528892517,-0.24866771697998047,-0.7655038237571716,-0.9673589944837727,-0.654479016403536,0.21923345548178808
36600.236804875,0.6820416450500488,-0.3978428244590759,-0.7074999809265137,-0.9609714126993738,-0.7333321379371351,0.2146980963532124
36600.256940875,0.3660072684288025,-0.4657188057899475,-0.4706893563270569,-0.95808182226277,-0.7936809199521202,0.20887911769303957
36600.277077875005,0.350064218044281,-0.7270711660385132,-0.6298090219497681,-0.9688570438613872,-0.8315705776573776,0.2067610867935948
36600.297213875005,0.017119966447353363,0.06187999248504639,-0.17176192998886108,-0.9854226230319909,-0.8658672959432613,0.1984881062061759
36600.317350875004,0.08413393050432205,-0.28408610820770264,-0.1374790072441101,-1.0045408778659706,-0.8987469967596039,0.18505557121318217
36600.337486875,0.10021137446165085,0.15212541818618774,0.013591170310974121,-1.0322375699010222,-0.9340005805596416,0.1668241740879845
36600.357623875,0.14424246549606323,-0.1430322527885437,-0.03735703229904175,-1.0598461708337303,-0.9690237826251172,0.1459556685541928
36600.377759875,0.13283586502075195,-0.12197685241699219,0.011647403240203857,-1.105639180463795,-0.995560166163533,0.12885460074323105
36600.397896875,0.15080484747886658,-0.09374618530273438,-0.008204340934753418,-1.1494343987527968,-1.0148975328346224,0.11470446770767681
36600.418032875,0.0524914413690567,0.019091784954071045,0.05781131982803345,-1.1842608004968738,-1.0266642002421857,0.10807619634984358
36600.438169875,0.11467040330171585,-0.006642520427703857,0.019735068082809448,-1.2119412649022856,-1.0356553644867996,0.10428692069453736
36600.458305875,0.1160515770316124,-0.02526068687438965,-0.02625828981399536,-1.2281119604784396,-1.0428725648101482,0.10091264453366279
36600.478442875,0.1353289783000946,-0.021503865718841553,0.007749885320663452,-1.2374430611716083,-1.0475278504277683,0.09916711608451505
36600.498578875005,0.058038901537656784,-0.060978055000305176,0.013350754976272583,-1.2386566824273684,-1.0557656276743275,0.09388848439116651
36600.518715875005,0.14853820204734802,-0.097331702709198,-0.028350472450256348,-1.2346311190595838,-1.064766745027045,0.08620976459161123
36600.538851875004,0.048815544694662094,-0.09178996086120605,0.005999863147735596,-1.2253104030103923,-1.0752276384464903,0.07643850582026865
36600.558988875004,0.040244583040475845,-0.3748948574066162,0.005074918270111084,-1.2224185313451799,-1.07638640019344,0.07545658891586572
36600.579124875,0.10004743933677673,-0.140882670879364,-0.11117729544639587,-1.2215161487498787,-1.0738467129806226,0.0749454743542066
36600.599261875,-0.03414960205554962,-0.03123462200164795,-0.022859573364257812,-1.2120135014161628,-1.0751120519433712,0.07045769526683393
36600.619397291666,-0.0021738912910223007,-0.16130739450454712,0.005428612232208252,-1.2087445432949622,-1.0750787962402921,0.06801036796050562
36600.639533291665,0.07111494988203049,-0.0641864538192749,-0.05280864238739014,-1.2069430477192955,-1.0739834363675518,0.06527915164648719
36600.65966929167,-0.010529175400733948,-0.06469380855560303,-0.041004836559295654,-1.2023930541975656,-1.070103494548131,0.06478943488474585
36600.67980629167,-0.03367295861244202,0.043105244636535645,-0.03119334578514099,-1.1983582687511651,-1.0707873330526145,0.060747284200517074
36600.69994329167,0.04836907982826233,0.006289243698120117,-0.008511662483215332,-1.1914491975896442,-1.0738580206689792,0.054255905555560466
36600.72007929167,0.05836012214422226,-0.020399093627929688,0.04851973056793213,-1.1839805674261505,-1.0730683013764695,0.05095917842933289
36600.74021629167,0.04132820665836334,-0.04173487424850464,0.07287955284118652,-1.1833444380814593,-1.0688111992781086,0.0510496046570584
36600.76035229167,-0.0015037469565868378,0.0423436164855957,0.07636123895645142,-1.1795590351331537,-1.0638689183932717,0.05262522494155661
36600.78048929167,-0.00611795112490654,-0.04222893714904785,0.13464471697807312,-1.1767890771226066,-1.057732402337083,0.0575445055883762
36600.80062529167,0.07613629847764969,0.045497357845306396,0.07781058549880981,-1.1748765851185357,-1.0521449152069582,0.06292456351885477
36600.82076229167,0.07219714671373367,0.015732884407043457,0.04707688093185425,-1.1744666787101967,-1.0473332988204829,0.06651322708886435
36600.840898291666,0.008883628994226456,0.05317622423171997,0.09203827381134033,-1.1734055627932123,-1.0447220412018778,0.06793780013515106
36600.861035291666,-0.004984728991985321,0.08682936429977417,0.11640605330467224,-1.172795111367951,-1.0457947416045157,0.06783415112374344
36600.88117129167,0.046301327645778656,-0.004408299922943115,0.08359488844871521,-1.1712761767970707,-1.0478575729151003,0.06715393673283647
36600.90130729167,0.021346019580960274,-0.046842098236083984,0.08315712213516235,-1.1713133066463044,-1.0450674118920142,0.0713862029731773
36600.92144429167,0.04014994576573372,-0.03811919689178467,0.09552225470542908,-1.172741171614046,-1.0414012655690492,0.07702367126989428
36600.94158129167,-0.0007437989115715027,0.047979772090911865,0.05304306745529175,-1.170323742319179,-1.0418602492203979,0.079252874399946
36600.96171729167,0.008526328951120377,-0.08193814754486084,0.09050434827804565,-1.1692025134534438,-1.041501639421236,0.08329146844869793
36600.98185429167,0.03128708899021149,-0.06311255693435669,0.03364419937133789,-1.1687829732097674,-1.0378932178761504,0.09030809024600008
36601.00199029167,0.03209535777568817,-0.03450733423233032,0.030375778675079346,-1.1682888103080558,-1.0338652213098718,0.09732483867746873
36601.02212729167,0.012120511382818222,-0.03431671857833862,0.04168206453323364,-1.1664425568485846,-1.0311063918907966,0.1038058483663749
36601.04226329167,0.012604445219039917,-0.06244802474975586,0.03962293267250061,-1.164415731080188,-1.0270931975316493,0.11147939659952194
36601.06240029167,0.02324501797556877,-0.058070480823516846,0.038778483867645264,-1.163957275434777,-1.020677824208199,0.12136346710997664
36601.082536291666,0.007442910224199295,0.013500511646270752,0.03610825538635254,-1.1609418977157109,-1.0154026323777885,0.1302274584464257
36601.102673291665,0.0017194859683513641,-0.05074489116668701,0.0826500952243805,-1.1587409379196523,-1.0099941121680927,0.1403755974030779
36601.12280929167,0.022841565310955048,-0.0336797833442688,0.03270930051803589,-1.1561810694500994,-1.0035660120040002,0.15183276271800245
36601.14294629167,0.02020738273859024,-0.06800752878189087,0.03920012712478638,-1.1525112502601254,-0.9965984713187837,0.16333376071299766
36601.16308229167,0.01670496165752411,-0.03488034009933472,0.05943799018859863,-1.1506360377365699,-0.9877943364065664,0.17712265756243828
36601.18321929167,0.008104264736175537,-0.016688406467437744,0.03044182062149048,-1.1466799188409267,-0.9805208022122308,0.18994440682033245
36601.20335529167,0.004996441304683685,-0.023757338523864746,0.031316787004470825,-1.1424087998313674,-0.9734310548439912,0.20273642790182833
36601.22349229167,-0.001191161572933197,-0.06211066246032715,0.038124144077301025,-1.1401928108532582,-0.963780736463932,0.2185086304027775
36601.24362829167,0.04527485370635986,0.005466759204864502,-0.02764981985092163,-1.1392888821026117,-0.9532998658962197,0.23476318042524186
36601.26376529167,0.009484559297561646,0.009209036827087402,-0.024409234523773193,-1.1337671980439155,-0.9458623095701814,0.24757876080006982
36601.28390129167,-0.004709526896476746,-0.029773414134979248,0.002755403518676758,-1.1309188855767855,-0.9365516915727116,0.26216127473400375
36601.304038291666,0.027634508907794952,0.08967423439025879,-0.027928084135055542,-1.1269181778007824,-0.9306681969768633,0.2735420477378211
36601.324174291665,0.029157720506191254,0.06173938512802124,-0.02795243263244629,-1.1200301953769005,-0.930102797528779,0.27963045050693663
36601.34431129167,-0.0029274746775627136,-0.0505942702293396,-0.014074206352233887,-1.113866419116384,-0.928625434648128,0.28649323472038746
36601.36444729167,0.043210431933403015,0.006261587142944336,-0.037164926528930664,-1.1096956948692527,-0.9247711479210299,0.2949075838521001
36601.38458429167,0.04170076549053192,0.02609574794769287,-0.03306826949119568,-1.1037347978962775,-0.9233156488354347,0.3007709979365654
36601.40472029167,0.028692573308944702,0.04008448123931885,-0.02877536416053772,-1.0956071397462654,-0.9243711677696779,0.3040164881709991
36601.42485729167,0.025707930326461792,-0.04062187671661377,-0.009305298328399658,-1.089479263214672,-0.924040775678057,0.3081945676452593
36601.44499329167,0.04274331033229828,0.010917961597442627,-0.0551241934299469,-1.0831328502672284,-0.9241985967200879,0.3111325098394747
36601.46513029167,0.026689648628234863,0.06922012567520142,-0.024902939796447754,-1.0739352790799725,-0.9280149743476344,0.3103078114440299
36601.48526629167,-0.005315706133842468,-0.06581157445907593,0.03380832076072693,-1.0661933394971748,-0.9308690002976379,0.31145476173418124
36601.50540329167,0.03361915051937103,-0.014700829982757568,-0.045645296573638916,-1.058589167391748,-0.9324061638426668,0.3131220957746365
36601.525539291666,0.03233976662158966,0.02034240961074829,-0.054853349924087524,-1.0484192241071286,-0.9352505860152831,0.31278164622459964
36601.545676291666,-0.006308555603027344,0.007468163967132568,-0.0037674903869628906,-1.0377447817293368,-0.9384602555331046,0.31230450708778495
36601.56581229167,-0.014797613024711609,-0.05002540349960327,0.023554205894470215,-1.029422794078699,-0.9384935670376153,0.3150243245175883
36601.58594929167,0.010108411312103271,0.026215314865112305,-0.030099570751190186,-1.021231786550479,-0.9374663503120964,0.31836207081458884
36601.60608529167,-0.017984628677368164,0.020104706287384033,-0.03120797872543335,-1.0114488665949724,-0.9380777825386991,0.3202243861562219
36601.62622329167,-0.001777738332748413,0.021606743335723877,-0.015520691871643066,-1.0034358827088978,-0.9384779190352543,0.3225019058759711
36601.64635929167,-0.007119685411453247,0.04349023103713989,-0.03946352005004883,-0.9943533305093234,-0.9406121617959118,0.322663005166779
36601.66649629167,0.005977541208267212,0.02244621515274048,-0.03821563720703125,-0.983859488669273,-0.9451713412656747,0.3201497213431258
36601.68663229167,-0.0045678019523620605,-0.05095672607421875,-0.004087567329406738,-0.9750877103217568,-0.9480826748835461,0.31905840549803244
36601.70676929167,0.0016948580741882324,-0.007598876953125,-0.009943008422851562,-0.9655682724263577,-0.9501160537727483,0.31807321692874824
36601.72690529167,-0.026832595467567444,0.014879882335662842,0.03360944986343384,-0.9548914905136477,-0.9526133898171286,0.316996855217712
36601.74704229167,-0.03068411350250244,-0.0017044544219970703,0.03461766242980957,-0.9452859023491762,-0.9542863430731477,0.31753963892825593
36601.767178291666,-0.01682831346988678,0.019172728061676025,0.001533210277557373,-0.9348531337899574,-0.9554781051205193,0.31793297343436416
36601.787315291665,-0.0025241225957870483,0.03566509485244751,0.02308797836303711,-0.9241445544219067,-0.956425903489061,0.31805999742185737
36601.80745129167,-0.018871739506721497,0.05438429117202759,0.03193974494934082,-0.9119901978352088,-0.9590996816349814,0.31733757315966526
36601.82758829167,0.002885580062866211,-0.02284073829650879,0.049382925033569336,-0.9030934616317423,-0.9604665313974395,0.318783884745265
36601.84772429167,0.023015812039375305,-0.02951943874359131,0.020133137702941895,-0.8933867681517853,-0.9616556429777589,0.3203683683877864
36601.86786129167,0.03060831129550934,-0.0006600618362426758,0.03368502855300903,-0.8821847932359577,-0.9633807064673829,0.3210791366161952
36601.88799729167,-0.037958428263664246,-0.0343741774559021,0.0834418535232544,-0.8725519537910497,-0.9639964454283984,0.323315389146441
36601.90813429167,0.03887470066547394,-0.056709349155426025,0.06362080574035645,-0.867812558700506,-0.9614943921871791,0.3287774263650278
36601.92827029167,0.016696840524673462,0.10017454624176025,0.004921257495880127,-0.8584808000712638,-0.9623882138847123,0.33135375024338826
36601.94840729167,0.06131584942340851,0.04661685228347778,0.058449625968933105,-0.844767258641527,-0.9670226433650955,0.33067035720558763
36601.96854329167,0.008916065096855164,-0.11602848768234253,0.14321941137313843,-0.8339192460202355,-0.9678223677764474,0.33317526409418985
36601.988680291666,0.10827693343162537,-0.08555102348327637,0.10029387474060059,-0.8285902198014969,-0.9622764603820849,0.340348526318769
36602.008816291665,0.14142200350761414,-0.09211593866348267,0.015156984329223633,-0.8208174479447445,-0.9536399994363168,0.34752808099915394
36602.02895329167,0.2126471847295761,-0.1189073920249939,-0.04615098237991333,-0.8100625479361624,-0.9405152139442641,0.35283952490961307
36602.04909029167,0.17729879915714264,-0.03518408536911011,0.03740203380584717,-0.7948923002575403,-0.9245858815827598,0.35536091715876555
36602.06922629167,0.12568366527557373,-0.14566713571548462,0.15388035774230957,-0.7812524660627063,-0.9027018467656441,0.3611009179803928
36602.08936329167,0.2152845561504364,-0.08796459436416626,0.076274573802948,-0.7685116761926284,-0.8749879182758881,0.3685647108929071
36602.10949929167,0.2940825819969177,-0.028620421886444092,-0.016170382499694824,-0.7502250002048544,-0.8463664557710608,0.37180094410835407
36602.12963629167,0.2766936123371124,-0.01753002405166626,-0.04514580965042114,-0.7251345059562211,-0.8185390127547855,0.3686043268314496
36602.14977229167,0.293490469455719,-0.11044949293136597,-0.030385196208953857,-0.7027755709922807,-0.7858401854268782,0.3644590835669061
36602.16990929167,0.33182859420776367,0.025668740272521973,-0.08206331729888916,-0.6800233620340184,-0.7524828748380974,0.3559996694502593
36602.19004529167,0.3616727888584137,0.023350536823272705,-0.09936904907226562,-0.6547660163581274,-0.7221707101420451,0.3397125374205605
36602.21018229167,0.3137499988079071,0.08602279424667358,-0.12966394424438477,-0.6260817468569999,-0.6925216992408277,0.3181711615282825
36602.230318291666,0.1747228056192398,-0.06550347805023193,-0.04202866554260254,-0.600766042785877,-0.6571902633444033,0.29954111445231635
36602.250455291665,0.1794552505016327,-0.06676119565963745,-0.020125269889831543,-0.5839264447833009,-0.6170662184714019,0.2855409415164543
36602.27059129167,0.16578973829746246,0.015094935894012451,-0.06989467144012451,-0.5690833948580414,-0.5785910213233559,0.271133545702494
36602.29072829167,0.16820748150348663,0.12640756368637085,-0.16428232192993164,-0.5538333546914479,-0.5436204588263589,0.2535238436427558
36602.31086429167,0.14728498458862305,0.23179423809051514,-0.20538866519927979,-0.5378259128331319,-0.5129072599562244,0.23171678838900195
36602.33100129167,0.12761464715003967,0.24595889449119568,-0.12523609399795532,-0.5210781437073129,-0.4886365722347317,0.20574122377947757
36602.35113729167,0.108594611287117,0.21365535259246826,0.016736328601837158,-0.503276047773232,-0.4704839946557508,0.17810688127215843
36602.37127429167,0.06456094980239868,0.240104079246521,0.02365291118621826,-0.4852605469853901,-0.45622932452293374,0.14977306521572079
36602.39141029167,-0.008585155010223389,0.260013610124588,0.021097421646118164,-0.4689458448306175,-0.44542453500008655,0.12184603965363086
36602.41154729167,-0.0190260112285614,0.29271870851516724,0.02739715576171875,-0.4509573636473277,-0.4407723368205056,0.09390666700799381
36602.43168329167,-0.02097363770008087,0.18749895691871643,0.07390415668487549,-0.43221737457058373,-0.44050370337680844,0.06658556139379962
36602.451820291666,-0.041331738233566284,0.1749701201915741,0.15654820203781128,-0.41716364314971094,-0.4427940954392655,0.04174935428688158
36602.471956291665,-0.04150900989770889,0.11408767104148865,0.19057977199554443,-0.40343556108056516,-0.4464151209810679,0.020596111407996547
36602.49209329167,-0.03964221104979515,-0.08527663350105286,0.1486690640449524,-0.3978931427393312,-0.4508704613652044,0.00191989440700481
36602.51222929167,-0.08215564489364624,0.07550951838493347,0.06000488996505737,-0.39684591462764285,-0.45782088980988656,-0.01561615394818511
36602.53236629167,-0.02350871078670025,0.13647201657295227,0.10055750608444214,-0.38960637513767865,-0.4666122546872941,-0.03224217010964725
36602.55250229167,-0.02561202645301819,-0.037370502948760986,0.14998990297317505,-0.38374028429867735,-0.4766538924360974,-0.04726965274428093
36602.57263929167,-0.06936671584844589,-0.06974515318870544,0.0990338921546936,-0.38342282010691275,-0.4872412085979975,-0.06020644378359014
36602.59277529167,-0.02663150429725647,0.11280730366706848,0.03833508491516113,-0.37915255383627117,-0.4992525165342895,-0.07279034101883447
36602.61291229167,0.007475227117538452,-0.017876744270324707,0.07013565301895142,-0.3719440649413673,-0.5119707193661993,-0.08518874112897885
36602.633047625,0.027921162545681,-0.062059998512268066,0.11806553602218628,-0.37092214046146843,-0.5255789077351785,-0.09690872557139202
36602.653184625,0.011711247265338898,-0.021736562252044678,0.0630793571472168,-0.37541800673195563,-0.5401993062011101,-0.10792338016566656
36602.673320625,0.02057388424873352,0.10797983407974243,0.013530433177947998,-0.37697504098339324,-0.5559455390817066,-0.11893815105206235
36602.693457625,0.05288321524858475,0.030248552560806274,0.03249967098236084,-0.37414076704049526,-0.5719536893370821,-0.12958282591313222
36602.713593625005,0.04343152046203613,-0.011596083641052246,0.04145634174346924,-0.37162292257348767,-0.5886892960382878,-0.1394291183435882
36602.733730625005,0.0879518985748291,-0.005109548568725586,0.03737920522689819,-0.3700822768536876,-0.6048342003797078,-0.14827019710722555
36602.753867625004,0.09034702181816101,-0.05704599618911743,0.021587133407592773,-0.371616447694653,-0.620765100021142,-0.15646091268829657
36602.774003625,0.09805822372436523,-0.023916542530059814,-0.030674338340759277,-0.37156449523732266,-0.6355573929790864,-0.16407803163282994
36602.794140625,0.09976759552955627,-0.037867188453674316,-0.04374206066131592,-0.3702755293890545,-0.6497339417720719,-0.172064015534267
36602.814276625,0.08670245110988617,0.04668578505516052,0.02487015724182129,-0.3680624703373145,-0.6638696153123961,-0.17963503438900963
36602.834413625,0.09880673885345459,0.05001962184906006,0.07809603214263916,-0.3644264373277278,-0.6779063135321428,-0.18607934134741674
36602.854549625,0.10395647585391998,-0.06659466028213501,0.0723302960395813,-0.3652829027837335,-0.69316832663196,-0.19192077405577554
36602.874686625,0.10284461081027985,-0.025543421506881714,-0.01571553945541382,-0.36848137042585405,-0.709753749787037,-0.19769724234475602
36602.894822625,0.1315351128578186,0.09047877788543701,-0.020324766635894775,-0.36371562089558823,-0.7249448966281922,-0.2031668724848525
36602.914959625,0.14558352530002594,-0.009684860706329346,0.06546133756637573,-0.3531620510015644,-0.7388581541337906,-0.20791326286389658
36602.935095625005,0.12486422061920166,-0.0509723424911499,0.1709854006767273,-0.3461265098105027,-0.754752060779923,-0.2124168988926121
36602.955232625005,0.12178359925746918,-0.06703388690948486,0.231237530708313,-0.3444985790127802,-0.7739619993045503,-0.21559374354866573
36602.975368625004,0.1359589546918869,0.05317464470863342,0.1631687879562378,-0.33858792853128056,-0.7944058504453902,-0.21745291779891537
36602.995505625004,0.17723216116428375,0.0030822157859802246,0.1329585313796997,-0.322469589136179,-0.8152770174401581,-0.2191324569584075
36603.015641625,0.18479520082473755,-0.03891068696975708,0.18808865547180176,-0.29656521944048,-0.8370057301015124,-0.2205751379564167
36603.035778625,0.18870395421981812,-0.07298114895820618,0.3158918023109436,-0.2648640961736161,-0.8597900584435046,-0.22020635126403182
36603.055914625,0.19079618155956268,-0.1002068817615509,0.4370352625846863,-0.2326872871134789,-0.884533927069348,-0.21559213947483882
36603.076051625,0.19007349014282227,-0.21518287062644958,0.35339248180389404,-0.20283797950175927,-0.912037371081796,-0.20670570753380288
36603.096187625,0.1933753341436386,-0.06731994450092316,0.23090070486068726,-0.16641460438766773,-0.9415018535202109,-0.19622703738327157
36603.116324625,0.21867235004901886,-0.0978836789727211,0.10119003057479858,-0.11200319379387057,-0.9709571053164634,-0.18545808603513989
36603.136460625,0.20495013892650604,-0.11298196017742157,0.09547823667526245,-0.04182715991708311,-0.9995691727315429,-0.174678036546876
36603.156597625006,0.1709052175283432,-0.21600455045700073,0.17352765798568726,0.037009864800237956,-1.0298787903184168,-0.16334970047089428
36603.176733625005,0.11186167597770691,-0.4167095720767975,0.22972184419631958,0.11049264694196054,-1.0656065963596644,-0.15029671733490965
36603.196870625005,0.11821216344833374,-0.3682606816291809,0.0670098066329956,0.17881808915426511,-1.1062700447281761,-0.13667905535883823
36603.217006625004,0.07707373797893524,-0.2782054543495178,-0.039960265159606934,0.25243640361981196,-1.1490855610847126,-0.12406896478191017
36603.237143625,0.028974026441574097,-0.3108610510826111,-0.07121849060058594,0.33330711039462657,-1.1927300611720475,-0.11237788379437524
36603.257279625,-0.054567933082580566,-0.3054482340812683,-0.07635343074798584,0.4135779122379691,-1.2395092192469108,-0.09961101802472634
36603.277416625,-0.10314855724573135,-0.2355831265449524,-0.07168722152709961,0.4889606528753762,-1.2899132148380643,-0.08455184517085901
36603.297552625,-0.16667073965072632,-0.1560855507850647,-0.0917438268661499,0.5622339409221319,-1.3436083654723616,-0.06616567559057017
36603.317689625,-0.2082429677248001,-0.20973217487335205,-0.10036885738372803,0.6266201079767074,-1.4032480309559467,-0.04246513358169628
36603.337826625,-0.19365540146827698,-0.14480215311050415,-0.18793469667434692,0.6847908122644927,-1.4687015248540345,-0.013290099977088821
36603.357962625,-0.19269157946109772,-0.13890045881271362,-0.23167020082473755,0.7389442078353633,-1.5357349370396502,0.017758666633208936
36603.378099625,-0.24930311739444733,-0.18351727724075317,-0.2677549123764038,0.7819526294750965,-1.603394950921611,0.04991994045912993
36603.398235625005,-0.27919062972068787,-0.04449045658111572,-0.2503068447113037,0.8195952000805246,-1.6710320244143508,0.08261314515699103
36603.418372625005,-0.3052961826324463,-0.04340893030166626,-0.32848215103149414,0.8550602007441412,-1.7414945663972068,0.11627453434226347
36603.438508625004,-0.26986950635910034,-0.08664119243621826,-0.3269779682159424,0.8896777788788213,-1.8100422051859073,0.14721940146012447
36603.458645625,-0.3136312961578369,-0.03510880470275879,-0.2535356283187866,0.9261594272818624,-1.8726681038912076,0.17284894599761255
36603.478781625,-0.30241161584854126,-0.22079461812973022,-0.2330273985862732,0.9572505706024877,-1.9284507639115558,0.19157923628632156
36603.498918625,-0.35994088649749756,-0.11313754320144653,0.009382069110870361,0.9726964249264383,-1.9758943744653854,0.20339871830596565
36603.519054625,-0.31399956345558167,-0.1741657257080078,0.0870518684387207,0.9758325343683477,-2.014836691520375,0.21020107501814192
36603.539191625,-0.2711697220802307,-0.12097805738449097,0.10228574275970459,0.972077970053262,-2.045907282875357,0.21273867655702697
36603.559327625,-0.23701345920562744,-0.17728900909423828,0.11131829023361206,0.9634310788824721,-2.07072041128796,0.21213669399170113
36603.579464625,-0.19966143369674683,-0.16960489749908447,0.08923554420471191,0.9499677279471317,-2.0881926544864866,0.20686079552472345
36603.599600625,-0.19457188248634338,-0.10136020183563232,0.06325793266296387,0.9374979795104333,-2.102317319288211,0.20024055884520653
36603.61973866667,-0.16473093628883362,-0.08827495574951172,0.07605159282684326,0.9314777280336538,-2.114552661054986,0.19377891612057657
36603.63987466667,-0.15024954080581665,-0.12667697668075562,0.1151970624923706,0.9288556444873506,-2.1240273861671124,0.18660091359605693
36603.66001166667,-0.12387451529502869,-0.14428532123565674,0.09993809461593628,0.9243335682595516,-2.1302035809787903,0.1783457754951474
36603.680147666666,-0.12158374488353729,-0.08876049518585205,0.03476905822753906,0.9203133486528221,-2.134266162600521,0.1699955323331142
36603.700284666666,-0.07284960150718689,-0.05638915300369263,0.05624735355377197,0.919947853326558,-2.138011270771113,0.16225618429436392
36603.72042066667,-0.05946891009807587,-0.11427175998687744,0.04906630516052246,0.9213243005891508,-2.139174969062442,0.1540465493605851
36603.74055766667,-0.05690911412239075,-0.09393376111984253,0.005819976329803467,0.9232156036438113,-2.1397408874896775,0.14740492334539296
