Timestamp,AccelerationX,AccelerationY,AccelerationZ,Pitch,Yaw,Roll,RRX,RRY,RRZ
245405.43262962502,0.013465821743011475,0.0013390183448791504,-0.013674378395080566,0.2804050259015538,0.2436172463596689,-1.4290174934731155,-0.051387131214141846,0.008801320567727089,-0.006242041476070881
245405.45276562503,0.011092424392700195,-0.009459972381591797,-0.017746910452842712,0.2813622893393258,0.24082139632822536,-1.4270828666238986,-0.18852116167545319,0.022925661876797676,-0.007545392960309982
245405.472901625,-0.004836380481719971,-0.007254093885421753,-0.03549252450466156,0.27857687533066056,0.23645659070460012,-1.424792566442221,-0.20510044693946838,0.046818919479846954,0.06336978822946548
245405.493036625,-0.012031316757202148,0.036230385303497314,-0.026724234223365784,0.2752108253000293,0.23277918622111757,-1.4228232792966498,-0.15658000111579895,0.028590738773345947,0.0649421215057373
245405.513172625,-0.0018501877784729004,0.039578914642333984,0.007021903991699219,0.27394970142210684,0.230333280033102,-1.4211198734996184,-0.08795157819986343,0.021248314529657364,0.050443608313798904
245405.53330862502,-0.014131546020507812,0.013555854558944702,-0.00010097026824951172,0.2739743151077631,0.22895980253825457,-1.4195928072155097,-0.016309082508087158,0.019259199500083923,0.030118096619844437
245405.55344462502,-0.007371425628662109,0.024986296892166138,0.003739193081855774,0.2746258281163508,0.22968502632666615,-1.4181748711319975,0.09337986260652542,0.007382299285382032,0.02978307008743286
245405.573580625,-0.004263401031494141,0.01294758915901184,0.016549959778785706,0.27236011718599473,0.23128586948650243,-1.4171414238483275,0.08753365278244019,-0.01708078756928444,0.037207163870334625
245405.593716625,-0.01108330488204956,-0.012204408645629883,0.008175015449523926,0.2696146651249546,0.23282200948715584,-1.4183304490945494,0.03676585108041763,-0.02235056273639202,0.035168781876564026
245405.613851625,-0.016046583652496338,-0.02236342430114746,0.009318098425865173,0.2677981004468366,0.23300502839470225,-1.4191129996877887,-0.03061354160308838,-0.0319940485060215,0.028050685301423073
245405.633987625,-0.012345433235168457,-0.02941310405731201,0.013971731066703796,0.26642164145798447,0.23234989882483767,-1.4199548293720816,-0.0209856815636158,-0.04049991816282272,0.01568908989429474
245405.65412362502,-0.011839032173156738,0.0012692511081695557,0.00517602264881134,0.265580212134042,0.23256166828982117,-1.4214200427324706,0.015788443386554718,-0.0391337126493454,-0.009293757379055023
245405.67425962503,-0.030160605907440186,-0.003417104482650757,0.005095481872558594,0.2664322674916431,0.2332549151828275,-1.4228929007878945,0.03987327590584755,-0.036533135920763016,-0.019048383459448814
245405.694395625,-0.0362970232963562,-0.01225656270980835,-0.00910496711730957,0.2675031689186117,0.23383293424613968,-1.4237711874658805,-0.001698670326732099,-0.014324238523840904,-0.009955020621418953
245405.714530625,-0.012349545955657959,-0.03697893023490906,0.0008795857429504395,0.26803791729892174,0.23268715222467107,-1.4241598275105807,-0.12651334702968597,-0.018870344385504723,0.011740154586732388
245405.734666625,0.010752677917480469,-0.03667581081390381,0.006428375840187073,0.26724464147874766,0.22923438917503938,-1.4239897606190806,-0.19156846404075623,-0.044000640511512756,0.03164302185177803
245405.75480262502,0.02457582950592041,-0.004794776439666748,0.0036386847496032715,0.2663328316186244,0.2276132859034674,-1.4251109179064803,0.036353375762701035,-0.06098601967096329,0.006814638152718544
245405.77493862502,0.013941526412963867,0.0051021575927734375,0.010885074734687805,0.26697509176793727,0.22968542391609334,-1.4264296601129067,0.13470259308815002,-0.04466509819030762,-0.030604904517531395
245405.79507462503,0.01454150676727295,-0.03991702198982239,0.006617680191993713,0.26943776142089415,0.23188802153679228,-1.4276055508907834,0.09087006002664566,-0.025982938706874847,-0.057931333780288696
245405.81520962503,0.0217440128326416,-0.02530592679977417,-0.005827233195304871,0.2728198711583985,0.2328136598457771,-1.428359831206493,0.009598769247531891,-0.028670065104961395,-0.06575197726488113
245405.835345625,0.025027751922607422,-0.03351631760597229,-0.017216548323631287,0.27497417561700127,0.2316185889346619,-1.428696047795254,-0.11162091046571732,-0.02766534313559532,-0.06330586224794388
245405.855481625,0.023252367973327637,-0.018503397703170776,-0.004528924822807312,0.2745760777152,0.2281069978409133,-1.4285439731616962,-0.1604631543159485,-0.05234698951244354,-0.07219123095273972
245405.87561762502,0.012542784214019775,0.050579726696014404,-0.00907646119594574,0.2770726444984806,0.2263123052511249,-1.4292444225447956,0.006149176973849535,-0.029638390988111496,-0.0731840580701828
245405.89575362502,0.02144920825958252,0.04570817947387695,0.0009620934724807739,0.27919487287726924,0.2271150472069621,-1.4299775186338772,0.0754571482539177,-0.04596942663192749,-0.06204325333237648
245405.91588862502,0.026604950428009033,0.027400225400924683,-0.0034580081701278687,0.2812300084449949,0.2285583364603306,-1.430931899075017,0.08458477258682251,-0.0451355017721653,-0.04134916141629219
245405.93602462503,0.01631075143814087,0.01629406213760376,-0.0040300339460372925,0.2825190253904498,0.22943473625823874,-1.431689423754052,0.00924847461283207,-0.04742768779397011,-0.026628805324435234
245405.956160625,0.01381826400756836,-0.007866203784942627,-0.008311137557029724,0.2819571659837566,0.22856602751713587,-1.4320902240785691,-0.06616177409887314,-0.04483385384082794,-0.004674504976719618
245405.976296625,0.008540809154510498,0.007296919822692871,-0.002264067530632019,0.28003117965525476,0.2266896744040045,-1.4322592187071341,-0.0962023138999939,-0.05074625089764595,0.025250371545553207
245405.99643262502,0.004611372947692871,0.022484958171844482,-0.012623623013496399,0.27895754676864587,0.2255420231998943,-1.4327495947466704,-0.015018693171441555,-0.034257110208272934,0.021454833447933197
245406.01656762502,-0.013234138488769531,0.01756298542022705,0.0005419999361038208,0.27809149190437465,0.22547755943334793,-1.4328669470668358,-0.0011122423456981778,-0.012220608070492744,0.023145942017436028
245406.03670362502,-0.008731842041015625,0.006438642740249634,-0.001516878604888916,0.2780431874920879,0.22549283571664547,-1.4326595608451205,-0.004346518311649561,0.0008848076686263084,0.045808374881744385
245406.056839625,-0.010843813419342041,0.003387540578842163,0.011899113655090332,0.2767270676175131,0.22527339756671255,-1.432451706434991,-0.022887757048010826,-0.011140517890453339,0.06577648967504501
245406.076975625,-0.015435278415679932,0.009889334440231323,0.016626954078674316,0.2748257161800073,0.2250009862053571,-1.4320488472824975,-0.0125897116959095,-0.013641493394970894,0.07847577333450317
245406.09711162501,-0.012475967407226562,0.0019846558570861816,0.023532375693321228,0.2716557685202541,0.22470009972374613,-1.4322119703593454,-0.046725135296583176,-0.01658286526799202,0.09448882937431335
245406.117246625,-0.022506654262542725,-0.01598694920539856,0.028212860226631165,0.26948970358508934,0.22352644783188544,-1.4323319050427274,-0.091959148645401,-0.012860476039350033,0.09563105553388596
245406.13738262502,-0.032080888748168945,-0.015926867723464966,0.03045494854450226,0.2672573516785116,0.22189253598345798,-1.4326899306230756,-0.09871261566877365,-0.026587385684251785,0.10105405002832413
245406.15751862503,-0.04022020101547241,-0.00925666093826294,0.03123481571674347,0.26482396073464043,0.22045604835137214,-1.433849678089946,-0.09012800455093384,-0.04891097918152809,0.12115612626075745
245406.177654625,-0.06423664093017578,-0.00536230206489563,0.01797240972518921,0.26229877543491004,0.21957589827339824,-1.4352857731837116,-0.052263177931308746,-0.06160600110888481,0.12324511259794235
245406.19779075,-0.07143330574035645,-0.014248132705688477,0.024898052215576172,0.26000322346011107,0.21883811789115756,-1.4369169041128023,-0.061277445405721664,-0.08171819150447845,0.11101853847503662
245406.21792575,-0.06874161958694458,-0.02124100923538208,0.020823433995246887,0.25780458280747554,0.21735622685107764,-1.4386834006691778,-0.12922821938991547,-0.0921907126903534,0.10239788144826889
245406.23806175002,-0.07044285535812378,-0.04629737138748169,0.005711078643798828,0.2555945524766009,0.21462163996051145,-1.4401349535933032,-0.1595182567834854,-0.09719675034284592,0.09444967657327652
245406.25819775002,-0.05467253923416138,-0.03949818015098572,0.0035160034894943237,0.2534911268705958,0.2116935334101844,-1.4417306669933891,-0.1411277949810028,-0.11484338343143463,0.07605229318141937
245406.27833375,-0.05878615379333496,-0.021571114659309387,-0.00891566276550293,0.2519130900854688,0.2098025951808758,-1.4439237092418833,-0.07819091528654099,-0.13366074860095978,0.054045531898736954
245406.29846975,-0.07113856077194214,-0.0392272025346756,-0.010167717933654785,0.2508086146310031,0.20801066870289275,-1.446262902959475,-0.1127379760146141,-0.13334916532039642,0.04350048303604126
245406.31860575,-0.07590663433074951,-0.03374280035495758,-0.017889611423015594,0.24979155921778182,0.20552057531586101,-1.448454534868918,-0.13190659880638123,-0.13720808923244476,0.037442587316036224
245406.33874075,-0.09434747695922852,-0.02320227026939392,-0.01378023624420166,0.24878049130317734,0.202520196271619,-1.450305140870079,-0.17592284083366394,-0.1230875626206398,0.027712464332580566
245406.35887675002,-0.09259605407714844,-0.04520609974861145,0.0014722347259521484,0.2479612195748428,0.1975854363285566,-1.4514466188203365,-0.30762821435928345,-0.12271437048912048,-0.00554269552230835
245406.37901275003,-0.08697611093521118,-0.03322511911392212,0.033870816230773926,0.24788545567406903,0.19037515197462712,-1.452522517121773,-0.3581831753253937,-0.16220664978027344,-0.055989623069763184
245406.39914875,-0.10164779424667358,0.019825950264930725,0.0488385409116745,0.24841681171918772,0.18395930933240323,-1.4545365938882309,-0.24976320564746857,-0.20446807146072388,-0.04404241591691971
245406.41928475,-0.07833224534988403,0.033158108592033386,0.05987197160720825,0.24825521282839,0.17891818899964845,-1.457899249544534,-0.24170327186584473,-0.2598264217376709,0.007441813126206398
245406.43941975,-0.03838258981704712,0.032831043004989624,0.05099610984325409,0.24702076054721353,0.1736674033002225,-1.4623788104005546,-0.2902654707431793,-0.30937984585762024,0.05626288056373596
245406.45955575,0.0021542906761169434,-0.01608896255493164,0.03753115236759186,0.24508524830249598,0.1663306621802707,-1.4671206484851036,-0.4311566948890686,-0.3486470878124237,0.047082964330911636
245406.47969175002,0.026270031929016113,-0.019580155611038208,0.024696648120880127,0.24387752026901963,0.15686868222868816,-1.4721641386829014,-0.49849069118499756,-0.35694435238838196,-0.02310890518128872
245406.49982775003,0.022463321685791016,-0.024844318628311157,0.024830110371112823,0.2441449387945749,0.1454062843084381,-1.4763639552318053,-0.5989865660667419,-0.3333192765712738,-0.10521230101585388
245406.51996375,0.02632969617843628,-0.018846213817596436,0.023945994675159454,0.24576641014769354,0.13249497955570708,-1.479768912977222,-0.5922523736953735,-0.32875823974609375,-0.16607271134853363
245406.54009875,0.034803926944732666,0.02560633420944214,0.027248620986938477,0.24860290431180643,0.12065890932137063,-1.4836005613966305,-0.5331885814666748,-0.3331185579299927,-0.20674771070480347
245406.56023475,0.02444744110107422,0.01231144368648529,0.04774285852909088,0.25212617494020706,0.10906782181569477,-1.4875368531576654,-0.5781063437461853,-0.34591320157051086,-0.22115354239940643
245406.58037075002,0.023658335208892822,-0.01951339840888977,0.05612111836671829,0.25566256189963615,0.09509857162375758,-1.4910827390496977,-0.7404713034629822,-0.33819907903671265,-0.2314154952764511
245406.60050675002,-0.013242840766906738,-0.015651553869247437,0.07326889038085938,0.25911947365199,0.07762273833959082,-1.492913434302531,-0.9455046057701111,-0.2857920527458191,-0.23382726311683655
245406.62064275003,-0.037747740745544434,-0.07349210977554321,0.12835896015167236,0.26184132298637425,0.05398043281701966,-1.4920743213266183,-1.2446500062942505,-0.2672535479068756,-0.20253431797027588
245406.64077775003,-0.04616665840148926,-0.013630211353302002,0.15337252616882324,0.2638656826976702,0.028243059402660736,-1.491598608662827,-1.1934685707092285,-0.3264950215816498,-0.17708301544189453
245406.66091375,-0.09111636877059937,-0.04424741864204407,0.16733068227767944,0.2645370263280762,0.002115817301806324,-1.4915245759981626,-1.3395838737487793,-0.3390050530433655,-0.06725293397903442
245406.68104975,-0.10960716009140015,-0.09365883469581604,0.1332492232322693,0.2628106571321594,-0.030121251270904453,-1.4893193843923023,-1.7995219230651855,-0.24230138957500458,-0.03131730109453201
245406.70118575002,-0.13626527786254883,-0.10147663950920105,0.12856525182724,0.25997780483380956,-0.07326403623546418,-1.48068035617864,-2.3606042861938477,-0.011161824688315392,-0.012155856937170029
245406.72132175002,-0.05656319856643677,-0.1963902711868286,0.17666268348693848,0.25405727444677956,-0.12920862530270083,-1.4653587326213489,-3.034447193145752,0.11762633919715881,0.07781025022268295
245406.74145675002,-0.009038805961608887,-0.1409691721200943,0.1606663465499878,0.24360469839765697,-0.19496468653511997,-1.4450200262219273,-3.2613227367401123,0.2752652168273926,0.22763755917549133
245406.76159275,0.032323479652404785,-0.0684707760810852,0.06615717709064484,0.2307046725951057,-0.2602022249402899,-1.4223880754082918,-3.2727530002593994,0.4500797390937805,0.19992364943027496
245406.78172875,0.06245940923690796,-0.25829100608825684,0.04202629625797272,0.21641679169824596,-0.33102902339696455,-1.3958589804103736,-3.687796115875244,0.6134451627731323,0.1333904266357422
245406.80186475,0.13558721542358398,-0.24896864593029022,0.057147324085235596,0.20032069388358287,-0.4041148398575431,-1.36711592875976,-3.477945327758789,0.7831644415855408,0.13485702872276306
245406.82200075002,0.15394341945648193,-0.0884755402803421,-0.03151361644268036,0.18379772801933073,-0.46662724012891926,-1.3391280563147685,-2.7895073890686035,0.7442460656166077,0.1849348396062851
245406.84213575002,0.18535876274108887,-0.09170612692832947,-0.03268793225288391,0.16694175616363185,-0.5147386262376243,-1.3168127245864254,-2.310359001159668,0.6154934763908386,0.2684406340122223
245406.86227175003,0.1824437975883484,-0.2713000178337097,-0.06561654806137085,0.14917450190283674,-0.5632543430838438,-1.2969136694069325,-2.765939474105835,0.6679946184158325,0.25654083490371704
245406.88240775,0.15717750787734985,-0.14688324928283691,-0.052244365215301514,0.13069489529779804,-0.6135566422568766,-1.2749809214217533,-2.368293523788452,0.7653422951698303,0.13169053196907043
245406.90254375,0.2199292778968811,-0.04711707681417465,-0.16138559579849243,0.11808943320883074,-0.6520466753987756,-1.2547988947543036,-1.6670624017715454,0.7921772599220276,-0.03419671207666397
245406.92267975002,0.19073861837387085,-0.0948493704199791,-0.08910587430000305,0.10960884037297794,-0.6798297489526143,-1.2343421184654617,-1.3156810998916626,0.935029923915863,0.04736872389912605
245406.94281475001,0.148811936378479,-0.15451407432556152,-0.035172462463378906,0.10041531938320704,-0.7014027708898282,-1.21147478870487,-1.085272192955017,1.0743610858917236,0.10523201525211334
245406.96295075002,0.12684857845306396,-0.27685368061065674,-0.11341896653175354,0.08756172160837378,-0.7235120811755918,-1.1858851589820525,-1.4402021169662476,1.2830924987792969,0.2868436276912689
245406.98308675003,0.11070996522903442,-0.239833265542984,-0.11488604545593262,0.06811121482485998,-0.7524642430571333,-1.155852516413822,-2.1033542156219482,1.4421238899230957,0.4474511444568634
245407.00322275,0.12224984169006348,-0.286232054233551,-0.042087942361831665,0.03761405963614338,-0.7954325985878195,-1.1252685805174147,-2.7380030155181885,1.3685935735702515,0.42351359128952026
245407.02335875,-0.008086681365966797,-0.012767795473337173,-0.2613586485385895,0.010685140897664529,-0.8353187459796446,-1.0974227483035315,-1.9766470193862915,1.3077106475830078,0.2508677840232849
245407.04349375,-0.01013880968093872,-0.11837346106767654,-0.07106494903564453,-0.01310346851917424,-0.8640900816326937,-1.0737717580365944,-1.7500865459442139,0.9419981837272644,0.4810921847820282
245407.06362975002,0.05677586793899536,-0.15142807364463806,0.11863917112350464,-0.040217611758930016,-0.8883875668654406,-1.057892441610264,-1.6713083982467651,0.7997953295707703,0.7263347506523132
245407.08376575002,-0.0701441764831543,-0.052506230771541595,-0.11549395322799683,-0.07242123586451203,-0.9090198439731901,-1.0409878296436395,-1.6040493249893188,0.959905207157135,1.0294157266616821
245407.10390175,-0.07077336311340332,0.14052437245845795,-0.24727141857147217,-0.10559769752403578,-0.919034684112473,-1.0208539438204813,-0.7088067531585693,1.0454630851745605,1.3067392110824585
245407.12403775,-0.07883089780807495,0.4696888327598572,-0.3995983600616455,-0.123151562382889,-0.8970813854874421,-0.9964174057649552,1.600069284439087,1.1601020097732544,1.3147220611572266
245407.14417275,-0.20413357019424438,0.42912256717681885,-0.39137160778045654,-0.11715050062176247,-0.843773844348694,-0.9617527101003537,2.6942176818847656,1.644235372543335,1.1719046831130981
245407.16430875,-0.16988283395767212,-0.0815466120839119,-0.2634449601173401,-0.10870761829414159,-0.7914529914819797,-0.9191083510712066,1.8416647911071777,1.9360193014144897,1.2241090536117554
245407.18444475002,-0.10349249839782715,-0.007068328559398651,-0.30758339166641235,-0.10477889049411568,-0.744658822003442,-0.8751353014297045,2.0693395137786865,2.0330328941345215,1.2868525981903076
245407.20458079167,-0.19230788946151733,0.1893301010131836,-0.19646894931793213,-0.09293866112175157,-0.6929935619321925,-0.8272462558956346,2.552732229232788,2.2024667263031006,1.213813304901123
245407.22471679168,-0.1362316608428955,0.0707719698548317,-0.06410109996795654,-0.0739181464238373,-0.6400839787747518,-0.7791105998984785,2.613466262817383,2.0721988677978516,1.0621646642684937
245407.24485179168,-0.14680683612823486,0.20694375038146973,-0.05377304553985596,-0.048522697649037105,-0.5885041305508479,-0.7348968521463793,2.74454402923584,2.0316226482391357,0.9008596539497375
245407.26498779168,-0.22194832563400269,0.18600916862487793,-0.020963728427886963,-0.015346428130455638,-0.5390634416222436,-0.6910136127104165,2.856959581375122,2.1482157707214355,0.7720750570297241
245407.2851237917,-0.22837930917739868,0.09530092775821686,0.02557075023651123,0.016795220633395874,-0.49343459460016753,-0.6476255814427156,2.5306437015533447,2.1256721019744873,0.782854437828064
245407.30525979167,-0.1851348876953125,0.14438481628894806,0.028220415115356445,0.0473260454268317,-0.452139971011367,-0.6058237622839469,2.4123950004577637,2.1373960971832275,0.7313691973686218
245407.32539579167,-0.12625718116760254,0.172694593667984,0.046441733837127686,0.07927171926387253,-0.4133007258750898,-0.565558129739824,2.2559916973114014,2.104170083999634,0.7159449458122253
245407.34553079167,-0.0827263593673706,0.04916854947805405,0.06902831792831421,0.10548588717107901,-0.38031524789634946,-0.5273161600134835,1.6553462743759155,2.0092642307281494,0.7000424265861511
245407.36566679168,-0.08366659283638,0.02230461686849594,0.11571240425109863,0.12483193200041708,-0.354729174851144,-0.4904338231098529,1.3316651582717896,1.9507125616073608,0.5235890746116638
245407.3858027917,-0.02798601984977722,0.08913499116897583,0.17625027894973755,0.14398377587354555,-0.3352208509096404,-0.45442210114997406,1.2407861948013306,1.8634077310562134,0.32791516184806824
245407.4059387917,0.03704351186752319,0.04616458714008331,0.1970168948173523,0.16159779458923534,-0.320508244920822,-0.4209797652376095,0.9381740689277649,1.6604783535003662,0.2477439045906067
245407.42607479167,0.06132003664970398,0.004241809248924255,0.2151559591293335,0.17408024766102462,-0.3106210375648468,-0.3911094354012586,0.6495906710624695,1.4886003732681274,0.13210518658161163
245407.44620979167,0.0412122905254364,0.05698169767856598,0.2180665135383606,0.18495702928558225,-0.30473949298177794,-0.36270514791788144,0.5262273550033569,1.4343233108520508,0.011130557395517826
245407.46634579168,0.09205710887908936,-0.020040810108184814,0.246953547000885,0.19261962921877943,-0.3026382103215094,-0.3358447699885444,0.30947408080101013,1.266918659210205,-0.07895353436470032
245407.48648179168,0.10539093613624573,0.029349684715270996,0.23407572507858276,0.19922886651843516,-0.3033888077207629,-0.3115374570219076,0.2612055242061615,1.1373251676559448,-0.20142804086208344
245407.5066177917,0.11782163381576538,-0.04163363575935364,0.2699509859085083,0.20313824768089325,-0.3076027308275627,-0.2893289768875055,-0.03961045667529106,0.9722446799278259,-0.3038327395915985
245407.5267537917,0.1207554042339325,-0.10213588178157806,0.2447279691696167,0.20139250825271104,-0.3153155068703053,-0.2696866937704847,-0.18584533035755157,0.8203037977218628,-0.38296082615852356
245407.5468887917,0.09724606573581696,0.026401236653327942,0.24306869506835938,0.20168544416686432,-0.3245582046846379,-0.25205645128905085,-0.07811363786458969,0.744722843170166,-0.4801233410835266
245407.56702479167,0.11896303296089172,-0.012300893664360046,0.24691396951675415,0.2004492569809455,-0.33505298171199915,-0.2362538621700641,-0.36634406447410583,0.6083160638809204,-0.4701857566833496
245407.58716079168,0.1321771889925003,-0.13402456045150757,0.24989211559295654,0.19055178505113549,-0.3475222051891031,-0.22303187300273725,-0.9436953067779541,0.46014994382858276,-0.49857237935066223
245407.60729679168,0.13271957635879517,-0.2929592728614807,0.3139806389808655,0.16410564267674266,-0.3645406681883908,-0.2130978244866308,-2.0654237270355225,0.19033586978912354,-0.5481992959976196
245407.6274327917,0.1404474377632141,-0.45114031434059143,0.3284233808517456,0.1119903361753177,-0.3869088825253649,-0.20912584498143222,-3.4303951263427734,-0.06997063010931015,-0.5023404359817505
245407.64756879167,0.05591605603694916,-0.36395442485809326,0.27271461486816406,0.03441355093063535,-0.4122345251476023,-0.20909427349477383,-4.682913303375244,-0.11058899015188217,-0.31295299530029297
245407.66770379167,0.03356596827507019,-0.3602544069290161,0.23140043020248413,-0.07100745975421958,-0.4390401633520965,-0.2112917620670496,-6.0625505447387695,-0.019311806187033653,-0.12337612360715866
245407.68783979167,-0.030529797077178955,-0.32918670773506165,0.16210943460464478,-0.19695853030542101,-0.4664487140215634,-0.21348062992480074,-6.658447265625,0.1642478108406067,0.15204213559627533
245407.70797579168,-0.07374194264411926,-0.22458001971244812,0.10488080978393555,-0.33276895495789166,-0.49219784579282067,-0.2144107479510434,-6.984266757965088,0.3907630443572998,0.26622676849365234
245407.7281117917,-0.04704385995864868,-0.06097570061683655,0.0609973669052124,-0.4684047013707563,-0.5179912713370157,-0.2150174200813676,-6.586215496063232,0.5512371063232422,0.2958541512489319
245407.7482477917,-0.08525851368904114,0.07546758651733398,0.07728981971740723,-0.5959335987617566,-0.5446081739890055,-0.21354144886561804,-6.259307861328125,1.0196073055267334,0.1338263899087906
245407.7683827917,-0.08448883891105652,0.35192012786865234,-0.06294548511505127,-0.7086322741921565,-0.5740529804428627,-0.20752065315322427,-5.162248611450195,1.2576369047164917,-0.09618977457284927
245407.78851879167,-0.035284146666526794,0.10927581787109375,-0.21193456649780273,-0.8011362745113415,-0.6076155982511438,-0.20492719554754676,-4.3663482666015625,1.2808806896209717,-0.3813735842704773
245407.80865479168,-0.07943375408649445,0.2063223123550415,-0.14777648448944092,-0.8759701381078155,-0.6453928488406313,-0.20693902309561332,-3.405580997467041,1.3288648128509521,-0.5357692837715149
245407.82879079168,-0.08790502697229385,0.19905966520309448,-0.17013788223266602,-0.9339785961547098,-0.6844339210594406,-0.21016540295273586,-2.8904426097869873,1.4224307537078857,-0.602332592010498
245407.8489267917,-0.09446761757135391,-0.005530178546905518,-0.07234454154968262,-0.9887948974893986,-0.7276026681337855,-0.215998571995361,-2.8923535346984863,1.4899922609329224,-0.6598957180976868
245407.8690617917,-0.06823457032442093,0.019946753978729248,-0.08478894829750061,-1.043059662322582,-0.777399153587804,-0.2270861720921015,-3.0225820541381836,1.5908153057098389,-0.6695012450218201
245407.8891977917,-0.09655772894620895,-0.08671927452087402,-0.052510082721710205,-1.1045302802295611,-0.8371429979432576,-0.24590286473071157,-3.511523485183716,1.745410680770874,-0.6437316536903381
245407.90933379167,-0.15044452250003815,0.009819984436035156,0.006019890308380127,-1.17306667962304,-0.9106376497934383,-0.27608768235134085,-3.780444860458374,1.8520596027374268,-0.5704957842826843
245407.92946979168,-0.0698920413851738,0.10622060298919678,0.04971647262573242,-1.2392879312058251,-0.9969366636810643,-0.31999293187936123,-3.2922544479370117,1.7718424797058105,-0.43031609058380127
245407.94960579168,-0.004531539976596832,0.17272233963012695,0.09013432264328003,-1.2954578134822972,-1.0920099502399818,-0.37656708409085204,-2.9851417541503906,1.6164867877960205,-0.34987106919288635
245407.96974079168,0.02346675843000412,0.07669895887374878,-0.028768643736839294,-1.3437772634668401,-1.206036419177695,-0.45640792695324806,-2.490245819091797,1.4413522481918335,-0.28358790278434753
245407.9898767917,0.0005604550242424011,0.15715914964675903,0.022162750363349915,-1.3794908335766276,-1.3319681051776462,-0.5513649014281673,-1.8775699138641357,1.3672583103179932,-0.2814483344554901
245408.0100127917,-0.005180194973945618,0.09573632478713989,-0.027451753616333008,-1.4028413872237557,-1.4586193507671854,-0.6490195532287357,-1.351611614227295,1.3130139112472534,-0.2668920159339905
245408.03014879167,-0.0007692053914070129,0.011034905910491943,-0.01793457567691803,-1.418941342145626,-1.5853380302984434,-0.7476543667467795,-1.213789463043213,1.3179579973220825,-0.23754876852035522
245408.05028479168,0.043248437345027924,-0.044151365756988525,-0.038363873958587646,-1.4328572221331273,-1.721614619970228,-0.856121880212056,-1.1906040906906128,1.3010246753692627,-0.13926507532596588
245408.07041979168,0.06228438764810562,-0.0646141767501831,-0.09564781188964844,-1.445050471524513,-1.8591507817811181,-0.9665573934559982,-0.9457026720046997,1.2654471397399902,0.007798410020768642
245408.09055579168,0.07496856898069382,-0.06194436550140381,-0.06173432618379593,-1.4554609965051595,-1.963476524890736,-1.0447153740294204,-0.6972092390060425,1.2536100149154663,0.19230061769485474
245408.1106917917,0.06364943087100983,-0.16262120008468628,-0.0321042574942112,-1.4667452213474863,-2.0502875235136235,-1.105526371229594,-0.7401415109634399,1.2933400869369507,0.31574052572250366
245408.13082779167,0.06621463596820831,-0.20640748739242554,-0.05961328744888306,-1.4795089644390844,-2.164044903291298,-1.1927446746533423,-0.8156569600105286,1.2881945371627808,0.38153523206710815
245408.15096379168,0.07504065334796906,-0.26323622465133667,-0.11217856407165527,-1.4927388271165523,-2.3405994247288304,-1.3425625534863852,-0.9519709944725037,1.2936677932739258,0.43379417061805725
245408.17109879167,0.0928136482834816,-0.2294192910194397,-0.1104961633682251,-1.5045431733699408,-2.6027156209398514,-1.5782819747977015,-1.035269856452942,1.2645407915115356,0.49489161372184753
245408.19123479168,0.07031915336847305,-0.2030743956565857,-0.11404120922088623,-1.5114630861579843,-2.9643932618725355,-1.9140299953039637,-1.0177150964736938,1.228202223777771,0.5626917481422424
245408.211370875,0.10157372057437897,-0.12159764766693115,-0.11542201042175293,-1.5131217446141825,2.950096060554047,-2.258251609966335,-0.726568877696991,1.1400961875915527,0.6229177713394165
245408.23150687502,0.09699453413486481,-0.05804246664047241,-0.1289217472076416,-1.511515075254122,2.6208696232232973,-2.564456719608775,-0.714415431022644,1.0880930423736572,0.6860533356666565
245408.25164287502,0.1045471653342247,-0.08983814716339111,-0.119048111140728,-1.5025946814169917,2.2972395499347282,-2.8661731399800705,-0.9760177135467529,1.0267307758331299,0.7994193434715271
245408.27177787502,0.11091306060552597,-0.07212167978286743,-0.09348177909851074,-1.4831720374199433,2.0384363791259887,-3.1050040390867064,-1.1776247024536133,0.8593976497650146,0.8682085275650024
245408.29191387503,0.14065556228160858,0.009611785411834717,-0.09945344924926758,-1.4565918883199607,1.8760626787610406,3.032381660870961,-1.3862746953964233,0.7129340171813965,0.8201019763946533
245408.312049875,0.14432194828987122,0.08096003532409668,-0.08698984980583191,-1.4262152304949958,1.781958503273408,2.9518693685143997,-1.37429678440094,0.5622073411941528,0.8144835233688354
245408.332185875,0.12751483917236328,0.16136640310287476,-0.12110567092895508,-1.3984146251651082,1.7141579810266592,2.8948024711263383,-1.0966051816940308,0.4213002026081085,0.8176832795143127
245408.35232187502,0.1015043556690216,0.20565247535705566,-0.10969161987304688,-1.3757505453058332,1.657200002708998,2.8462685100258747,-0.7909031510353088,0.31682172417640686,0.7657061219215393
245408.37245787503,0.08033140003681183,0.23564362525939941,-0.06087753176689148,-1.3564224646090395,1.6065640171510243,2.8024321702516204,-0.7348253130912781,0.20559543371200562,0.7596644759178162
245408.39259287503,0.04859422147274017,0.40364205837249756,-0.16694164276123047,-1.3426587383477022,1.5504977445517216,2.7520873854650274,-0.17085936665534973,0.22669148445129395,0.8100197911262512
245408.412728875,0.02834799885749817,0.31441766023635864,-0.09637948870658875,-1.3371522473705566,1.48538224745551,2.694125504756062,0.24677342176437378,0.3329279124736786,0.7192139625549316
245408.432864875,-0.036278627812862396,0.2838921546936035,-0.055222123861312866,-1.336725409342324,1.4229405331959952,2.641511494562159,0.3057875335216522,0.47074586153030396,0.5362465381622314
245408.45300087502,-0.06756062060594559,0.28229856491088867,0.011935442686080933,-1.3330320515608802,1.3906112156095176,2.6199525831181845,-0.39841485023498535,0.5060374736785889,0.27100154757499695
245408.47313687502,-0.11515161395072937,0.08529394865036011,0.10316666960716248,-1.3179457779861294,1.403176794899553,2.6428782025041837,-0.9234429597854614,0.561248242855072,0.16490042209625244
245408.49327187502,-0.11260832846164703,0.22565150260925293,0.0716843456029892,-1.3021732012578764,1.4169916501227877,2.6678735725867857,-0.4996347725391388,0.5904866456985474,0.2049974948167801
245408.51340787503,-0.09543874859809875,0.20463258028030396,0.033679232001304626,-1.2925945983849059,1.4243858511015317,2.6862059728131955,-0.6126328706741333,0.5284014940261841,0.03831370919942856
245408.533543875,-0.12639135122299194,0.13632428646087646,0.11035260558128357,-1.281296997192645,1.4430883997667727,2.714468060536445,-0.558072030544281,0.4851345717906952,-0.059069037437438965
245408.553679875,-0.08458476513624191,-0.02100890874862671,0.10042405128479004,-1.2729678042712889,1.4652903075097081,2.744337156015079,-0.44008028507232666,0.4281807243824005,-0.2240324169397354
245408.57381587502,-0.11233527213335037,0.10799205303192139,0.09976747632026672,-1.2685177529292488,1.486784860490301,2.773024610425715,-0.22090083360671997,0.38012951612472534,-0.21161143481731415
245408.59395087502,-0.03216595947742462,0.03929126262664795,0.14214444160461426,-1.2671045984823213,1.5026715815486864,2.794641255958737,-0.05652059242129326,0.2577350437641144,-0.20468056201934814
245408.61408687502,-0.0466843917965889,-0.041653454303741455,0.015212535858154297,-1.2669409414776525,1.5151779502670606,2.8123187727002152,-0.2233203649520874,0.31846845149993896,-0.1846999228000641
245408.63422287503,-0.053151972591876984,-0.19207918643951416,0.0032367706298828125,-1.260844765935739,1.53122955326709,2.834456621433058,-0.33964064717292786,0.3695187568664551,-0.08179006725549698
245408.654358875,-0.012038186192512512,-0.14407312870025635,-0.06074056029319763,-1.2584962934514152,1.5343199034128683,2.8450020225629022,0.14912302792072296,0.36496680974960327,0.03752301633358002
245408.674494875,0.03676054626703262,-0.1451500654220581,-0.06456586718559265,-1.266063199902195,1.51905689412585,2.836854640654642,0.5855085253715515,0.2695833742618561,0.17094045877456665
245408.694629875,0.06229014694690704,-0.251645565032959,0.0076121985912323,-1.2726559109759887,1.4979482632509955,2.8212035088373275,0.029413441196084023,0.1884608268737793,0.1864326000213623
245408.71476587502,0.0894656851887703,-0.4007655382156372,-0.005105882883071899,-1.2645411217733007,1.4917927745271513,2.8185824209034283,-0.7420159578323364,0.1442573219537735,0.22477759420871735
245408.73490187502,0.1154443621635437,-0.3107246160507202,-0.05646738409996033,-1.2484069691886734,1.4954381576540348,2.82369410193288,-0.5813958048820496,0.0418502613902092,0.17986205220222473
245408.755037875,0.08184652030467987,-0.11471647024154663,-0.15880000591278076,-1.24416688763891,1.4904721153074363,2.8192075130076386,0.20837073028087616,-0.03776795417070389,0.07435346394777298
245408.775173875,0.05906859040260315,-0.1769099235534668,-0.09668314456939697,-1.2538115596061186,1.4769835163031695,2.804370305475723,0.6765271425247192,-0.15703175961971283,0.02929411455988884
245408.795308875,0.037701062858104706,-0.23459011316299438,0.05974072217941284,-1.2650749927548208,1.4622879405510907,2.786541107727541,0.3835796117782593,-0.20900699496269226,0.03457409888505936
245408.815444875,0.031854964792728424,-0.3260387182235718,0.045071810483932495,-1.2660991434064162,1.4577777692130391,2.778206756998719,-0.14210309088230133,-0.1794869303703308,0.08561836928129196
245408.83558087502,0.05195295065641403,-0.09132802486419678,-0.04938209056854248,-1.2624582814923744,1.4529393618810726,2.7709887326045752,-0.1420794278383255,-0.0698167085647583,0.16188038885593414
245408.85571687503,0.02901861071586609,-0.0196760892868042,-0.0838080644607544,-1.2610144793316855,1.442324164634079,2.760907122749064,0.10609441250562668,0.07080060243606567,0.2354036122560501
245408.875852875,-0.000916600227355957,0.05950891971588135,-0.05929771065711975,-1.2630492825353101,1.4211819034160338,2.7434802056694076,0.28973495960235596,0.19260427355766296,0.30793264508247375
245408.895987875,-0.013157844543457031,0.08968770503997803,-0.021232277154922485,-1.2664019577003462,1.393766629474476,2.722148845716303,0.3365555703639984,0.27355504035949707,0.3181927502155304
245408.916123875,0.011645004153251648,0.15965282917022705,0.04542940855026245,-1.2704389024752563,1.3632127180524671,2.6985678868267002,0.3946255147457123,0.28080514073371887,0.33300232887268066
245408.93625987502,-0.010655313730239868,0.17838841676712036,0.0950499176979065,-1.2733469421267527,1.3326176337873654,2.674946111089469,0.26114165782928467,0.2745329439640045,0.3415806293487549
245408.95639587502,-0.020177453756332397,0.2179940938949585,0.08105280995368958,-1.2743075016615224,1.3041171726186795,2.6532413645131707,0.18054832518100739,0.30180540680885315,0.3300797641277313
245408.97653187503,-0.08979712426662445,0.19816404581069946,0.04685273766517639,-1.2741289918139242,1.2812138596003113,2.6388024452075363,0.16169345378875732,0.4400464594364166,0.24382266402244568
245408.99666687503,-0.09639759361743927,0.21757304668426514,-0.00011742115020751953,-1.276434551477435,1.2631097848712982,2.6321743126126362,0.30892181396484375,0.6280034184455872,0.08112908154726028
245409.016802875,-0.10291816294193268,0.21519219875335693,0.04494185745716095,-1.2845380263100854,1.2473397974162332,2.630656714362822,0.623749315738678,0.6855524778366089,-0.06552507728338242
245409.036938875,-0.096812903881073,0.2573835849761963,0.07517872750759125,-1.2972389736008811,1.2276358083812178,2.6248161285265,0.7001768350601196,0.6050643920898438,-0.06151115521788597
245409.05707487502,-0.09553112089633942,0.22357851266860962,0.040054887533187866,-1.3099795318372107,1.1992133665489249,2.6084111203413114,0.7705339193344116,0.5027830600738525,0.06063312664628029
245409.07721087502,-0.12852908670902252,0.16663199663162231,-0.07687355577945709,-1.3227128395033683,1.159713781155433,2.580172010520602,0.7319885492324829,0.5001181364059448,0.11045288294553757
245409.09734587502,-0.15197207033634186,0.025765180587768555,-0.04505118727684021,-1.3317517397127643,1.126609476824545,2.558291256030088,0.4731828272342682,0.5159559845924377,0.06843698769807816
245409.117481875,-0.16229355335235596,0.004568219184875488,-0.06879648566246033,-1.3390243303019198,1.1017227314587328,2.544563812163233,0.46698102355003357,0.5232102274894714,-0.0005173104582354426
245409.137617875,-0.16741438210010529,-0.048787474632263184,-0.048963189125061035,-1.3482185958984212,1.081354018853955,2.5353702591085803,0.5800269246101379,0.5343071818351746,-0.13897371292114258
245409.157753875,-0.14891695976257324,-0.06740903854370117,-0.04901207983493805,-1.36215329967626,1.0599082105383273,2.5250195812418372,0.8287837505340576,0.5090506076812744,-0.2755129337310791
245409.17788987502,-0.13033494353294373,-0.14488571882247925,-0.051568642258644104,-1.3802792555559718,1.0308053195474824,2.5063797407947748,0.9046081900596619,0.46212777495384216,-0.3117380440235138
245409.19802587503,-0.14033523201942444,-0.21959412097930908,-0.05732797086238861,-1.3976722597565645,1.002189466645706,2.4870385600740006,0.6554047465324402,0.39425820112228394,-0.30758219957351685
245409.21816087503,-0.13907448947429657,-0.32546716928482056,-0.02498592436313629,-1.4070920612418802,1.0057953782761702,2.499025624069931,0.11318770051002502,0.4789597690105438,-0.2758157253265381
245409.238296875,-0.1309366673231125,-0.3052600622177124,-0.01285158097743988,-1.4100895234554875,1.0304383753636526,2.5342102889119325,-0.07618417590856552,0.5784627199172974,-0.24532438814640045
245409.258432875,-0.09362325072288513,-0.27851802110671997,-0.02934063971042633,-1.4102247863924406,1.0686840685895536,2.5836283512775133,-0.28207772970199585,0.565433144569397,-0.261362761259079
245409.27856887502,-0.03745438903570175,-0.3719119429588318,0.010668382048606873,-1.4030051598338835,1.1305884638703836,2.6556584891753836,-0.7216063737869263,0.4947666823863983,-0.22089149057865143
245409.29870487502,0.07515819370746613,-0.08845585584640503,0.04475833475589752,-1.3944876631753782,1.1773144224387473,2.710197787703816,-0.4765893518924713,0.3756817579269409,-0.21710234880447388
245409.31883987502,0.1085963174700737,-0.18703514337539673,0.007405638694763184,-1.3898911638002274,1.2301004246427645,2.767939735962621,-0.26250261068344116,0.22169272601604462,-0.3781120181083679
245409.33897587503,0.028538525104522705,-0.04230302572250366,0.017692819237709045,-1.3886104940664448,1.2832684857661085,2.8238472701502357,-0.2944205403327942,0.12151375412940979,-0.4426411986351013
245409.359111875,0.09127935767173767,-0.18975889682769775,0.04815113544464111,-1.3822896380611103,1.3485347912991397,2.8893602491723738,-0.44420450925827026,-0.03209533542394638,-0.5214231014251709
245409.379247875,0.19376644492149353,-0.10119348764419556,0.01302000880241394,-1.37888085062962,1.4098323148282932,2.9459246867021593,-0.3185020685195923,-0.2866622805595398,-0.5286538004875183
245409.39938387502,0.12814050912857056,-0.36995530128479004,0.01816543936729431,-1.3699331537025694,1.4784590351688927,3.0066418700898523,-0.901153564453125,-0.3662089407444,-0.6340358853340149
245409.41951887502,0.16359978914260864,-0.43827545642852783,-0.07454851269721985,-1.3463239168172587,1.551776915070997,3.0702172064928175,-1.4268097877502441,-0.4425773322582245,-0.6814833283424377
245409.43965487502,0.06680452823638916,-0.026949763298034668,-0.17586597800254822,-1.3248085074496776,1.626560340207661,3.1342050471422613,-0.8111384510993958,-0.4106366038322449,-0.9254853129386902
245409.45979087503,0.1069534420967102,-0.20084720849990845,-0.057168424129486084,-1.3062282736179067,1.7059717329742232,-3.0809092605898485,-0.9919729232788086,-0.4419020414352417,-1.1064038276672363
245409.479926875,0.025379277765750885,0.08978426456451416,0.013647854328155518,-1.2872395726798989,1.7833971165728602,-3.015475580590413,-0.6300868988037109,-0.47511404752731323,-1.149200201034546
245409.500062875,-0.00023585930466651917,0.2125135064125061,0.17809489369392395,-1.274159976425864,1.8581882352922983,-2.953417774375009,-0.40294912457466125,-0.4911753833293915,-1.1634867191314697
245409.520197875,-0.014237768948078156,0.2223607897758484,0.21367016434669495,-1.25956023320631,1.9294826138937846,-2.8957228667130885,-0.5963721871376038,-0.5084334015846252,-1.2187851667404175
245409.54033387502,-0.09252402186393738,0.41087162494659424,0.16835665702819824,-1.2379491934639268,1.9908632553609698,-2.846214221382565,-0.9480602741241455,-0.3625465929508209,-1.1992958784103394
245409.56046987502,-0.11752099543809891,0.5136136412620544,0.1669071912765503,-1.2119190765867793,2.0364425455322177,-2.8096911661042445,-0.952621579170227,-0.2878097593784332,-1.0479987859725952
245409.580605875,-0.13670086860656738,0.5462316870689392,0.07783317565917969,-1.191999191128998,2.0713987935711735,-2.7824452610223602,-0.48812511563301086,-0.2316247671842575,-0.7898619771003723
245409.600741875,-0.11173880100250244,0.44399112462997437,0.015772074460983276,-1.1811477947035973,2.103040320760693,-2.756911191335954,0.0033340381924062967,-0.09079903364181519,-0.7190280556678772
245409.62087787502,-0.09936118125915527,0.3383815288543701,-0.06991592049598694,-1.1838977906235293,2.142214284400289,-2.7213179463069674,0.5451201796531677,-0.05585818737745285,-0.44129446148872375
245409.641012875,-0.04274539649486542,0.32558268308639526,-0.1105739176273346,-1.194708667507081,2.1906310030342686,-2.6759440289719523,1.081539273262024,0.10791432112455368,-0.6322275996208191
245409.66114887502,-0.03118342161178589,-0.036661744117736816,-0.0358714759349823,-1.2083671237758296,2.2505178916818864,-2.617070829998874,1.0162826776504517,0.1413029134273529,-0.6146965622901917
245409.68128487503,-0.007899761199951172,-0.08135861158370972,0.040136098861694336,-1.2177468873235588,2.306472267778922,-2.562848774034005,0.8765634298324585,0.007290863897651434,-0.5739858746528625
245409.701420875,0.002784132957458496,0.05994659662246704,0.14166900515556335,-1.2287415753797528,2.369097409184388,-2.5052328176146204,1.2842811346054077,-0.13776467740535736,-0.5633004903793335
245409.721556875,0.050801828503608704,0.07618480920791626,0.16613540053367615,-1.2437433295691722,2.449755578677523,-2.4334789507217502,1.4988439083099365,-0.2881304919719696,-0.5822747349739075
245409.741691875,0.06966614723205566,0.06471019983291626,0.10296642780303955,-1.260047974648065,2.546905392102998,-2.3484085711882483,1.6058783531188965,-0.4094386398792267,-0.5549921989440918
245409.76182787502,0.07006250321865082,-0.10579633712768555,0.173079714179039,-1.270565693874832,2.64039096071063,-2.268171861809749,1.2083427906036377,-0.47119981050491333,-0.55362868309021
245409.78196387502,0.13384956121444702,-0.14682883024215698,0.08964419364929199,-1.2753028144503011,2.7183310245898937,-2.203738507036179,0.9806315898895264,-0.5414474010467529,-0.5178951621055603
245409.80209987503,0.0861164927482605,-0.23067104816436768,-0.032092317938804626,-1.2761785582578822,2.7766341809705075,-2.1590049709188843,0.4302772879600525,-0.5531591773033142,-0.3895617425441742
245409.822235875,0.2066681832075119,-0.1602725386619568,-0.08730949461460114,-1.272904152268192,2.817797022245557,-2.130885286331194,0.5553229451179504,-0.55922532081604,-0.5200179815292358
245409.842370875,0.20013359189033508,-0.24613571166992188,-0.11781813204288483,-1.2696014128588662,2.8703689813663673,-2.092159223135499,0.49902603030204773,-0.5380133986473083,-0.5978984236717224
245409.862506875,0.14179548621177673,-0.24935460090637207,-0.058134421706199646,-1.263790385970168,2.918805023711168,-2.0566217255305412,0.5052043199539185,-0.5343003273010254,-0.5911622047424316
245409.88264287502,0.13656452298164368,-0.22940391302108765,-0.020743608474731445,-1.2564285782541864,2.961281755682017,-2.027492505457619,0.25736966729164124,-0.5810111165046692,-0.617515504360199
245409.90277887502,0.07933464646339417,-0.3096013069152832,0.057175859808921814,-1.2452610349965039,2.9812030309153634,-2.01943440478057,-0.27283358573913574,-0.49127259850502014,-0.6556826233863831
245409.922914875,0.05015292763710022,-0.4300456643104553,0.05559934675693512,-1.2267975025782891,2.9633789898831284,-2.046152795986845,-0.9177017211914062,-0.4840899705886841,-0.7356165647506714
245409.943050875,0.032699137926101685,-0.21772640943527222,0.04119467735290527,-1.2060180044910587,2.9411099143686297,-2.076339254419776,-0.8677911758422852,-0.4601776897907257,-0.7563841938972473
245409.963185875,-0.019248515367507935,-0.25470393896102905,0.05409108102321625,-1.1824223122298652,2.9187700582921856,-2.105568812958383,-0.9217305779457092,-0.40290582180023193,-0.8303055763244629
245409.983321875,-0.018290281295776367,-0.021614909172058105,0.13947725296020508,-1.1606861822664993,2.909286736574023,-2.1213109353498565,-0.41022729873657227,-0.29894211888313293,-0.8107510209083557
245410.00345787502,-0.02822086215019226,0.20182669162750244,0.18829476833343506,-1.1462870037566648,2.9265593510352983,-2.110885465126261,0.23319971561431885,-0.22785969078540802,-0.7603107690811157
245410.02359387503,-0.05536162853240967,0.2991397976875305,0.19271086156368256,-1.1395020660711381,2.9646004601214755,-2.0800376804351144,0.7275591492652893,-0.1413223147392273,-0.6028143167495728
245410.043729875,-0.06398412585258484,0.3139294981956482,0.17210912704467773,-1.1374169826258274,3.007569147651819,-2.0428220022894763,0.6506919860839844,-0.03123309090733528,-0.4137597680091858
245410.063864875,-0.12614881992340088,0.22878801822662354,0.11371363699436188,-1.1353808044280023,3.0320284983836108,-2.0195202727615014,0.14961402118206024,0.1601780652999878,-0.22847190499305725
245410.084000875,-0.1663070023059845,0.17485368251800537,0.09088778495788574,-1.1314051006840986,3.028844659990079,-2.0171544354983473,-0.42230018973350525,0.3640689551830292,-0.0919998288154602
245410.10413687502,-0.18489110469818115,0.23239898681640625,0.0885077714920044,-1.125867433021382,3.0051206956006933,-2.029863933398814,-0.6607010960578918,0.48500755429267883,0.043044812977313995
245410.12427287502,-0.17184248566627502,0.2957596778869629,0.04713273048400879,-1.121512258690812,2.975695490982314,-2.0460564496888565,-0.6423776745796204,0.5531467199325562,0.11952626705169678
245410.14440887503,-0.20084837079048157,0.2642402648925781,0.02464878559112549,-1.1184882803826792,2.9474057085799603,-2.059132735242864,-0.6079993844032288,0.6850591897964478,0.1643664538860321
245410.164544875,-0.2091936469078064,0.1808633804321289,-0.005786299705505371,-1.115293259947894,2.917220537034078,-2.0712021339709628,-0.6642473340034485,0.799752414226532,0.19573849439620972
245410.184679875,-0.1707364022731781,0.22177612781524658,-0.034140557050704956,-1.114141234280561,2.888554200184358,-2.0810772036613097,-0.42552849650382996,0.7588569521903992,0.33399301767349243
245410.204815,-0.10016018152236938,0.18100190162658691,-0.11159266531467438,-1.1197153928428034,2.866876730321172,-2.086511682348226,-0.15466256439685822,0.6308909058570862,0.6088975667953491
245410.224951,-0.04188916087150574,0.06729042530059814,-0.13241243362426758,-1.131737610562525,2.846763211607345,-2.093421722421898,-0.02834768034517765,0.4898117184638977,0.8427013158798218
245410.24508700002,-0.042599380016326904,-0.09358745813369751,-0.21201257407665253,-1.1454818998830099,2.814850287648987,-2.1122157891928537,-0.5059191584587097,0.5712748765945435,0.9514937996864319
245410.26522300002,-0.10751006007194519,-0.24328601360321045,-0.25632357597351074,-1.156210166669875,2.7679942082113227,-2.1415556408774665,-0.508795440196991,0.7280140519142151,1.0036357641220093
245410.28535800002,-0.04917818307876587,-0.15644758939743042,-0.24796395003795624,-1.1675675165806916,2.723336714105473,-2.1678974703095792,-0.33878809213638306,0.7309982180595398,0.9161432981491089
245410.30549400003,-0.10023579001426697,-0.15898030996322632,-0.12755155563354492,-1.1774026499210122,2.6855146818940847,-2.1873614608944316,-0.36200639605522156,0.8181653022766113,0.7022331357002258
245410.32563,-0.16254159808158875,-0.17118746042251587,-0.0716010332107544,-1.1811215574933644,2.650621892480994,-2.201289247638663,-0.41358616948127747,0.9707543849945068,0.416512131690979
245410.345766,-0.10804921388626099,0.1311643123626709,-0.1136532723903656,-1.186746613975214,2.638376947774317,-2.192954784580192,0.4977834224700928,0.9997586607933044,0.331110417842865
245410.36590200002,-0.1299988031387329,0.2030576467514038,-0.15403153002262115,-1.2034386365981877,2.6748654705180077,-2.138483303569032,1.2431145906448364,1.0412867069244385,0.3482547700405121
245410.38603700002,-0.06631609797477722,-0.06461316347122192,-0.09128296375274658,-1.2193644670734334,2.7145952725375575,-2.080385014434148,0.6006686687469482,0.9960236549377441,0.25543856620788574
245410.40617300002,-0.07715213298797607,-0.1937994360923767,-0.0168677419424057,-1.2257749040328905,2.711303273822002,-2.063141226525852,-0.22896000742912292,1.0036147832870483,0.2841311991214752
245410.426309,-0.018218010663986206,-0.20638400316238403,-0.03436732292175293,-1.2257179445111603,2.6695350844909034,-2.0818790669324443,-0.8651127219200134,1.072646975517273,0.3199176788330078
245410.446445,0.032654136419296265,-0.2975969910621643,-0.009605422616004944,-1.2236816218908635,2.616940368326718,-2.1097576956749213,-0.7925013899803162,1.048311471939087,0.44141295552253723
245410.46658100002,0.08721497654914856,-0.07757645845413208,-0.019797325134277344,-1.2238942323222068,2.5655973911496592,-2.1379585845139935,-0.653440535068512,0.9279301166534424,0.46370014548301697
245410.486716,0.12248387932777405,-0.18407928943634033,-0.027864843606948853,-1.2249623002975938,2.521262146803454,-2.16206063271706,-0.5931525230407715,0.801369309425354,0.4467632472515106
245410.50685200002,0.14198783040046692,-0.15357977151870728,0.07417640089988708,-1.225375859363453,2.4791275353642677,-2.187346596444093,-0.48661622405052185,0.6009288430213928,0.40332043170928955
245410.52698800003,0.19403114914894104,-0.04820382595062256,0.025060564279556274,-1.227232686952088,2.45264750308915,-2.202759150783078,-0.0223931185901165,0.3817741870880127,0.23733466863632202
245410.547124,0.06121581792831421,0.1228337287902832,-0.3251400291919708,-1.234919680542167,2.46815923746601,-2.1804674831209105,0.8594532012939453,0.3525809645652771,0.14625881612300873
245410.56726,0.21089276671409607,-0.2249547243118286,0.05456241965293884,-1.2455280933400326,2.506839387762802,-2.1389121976023517,0.6342583894729614,0.1674923300743103,0.026205115020275116
245410.587395,0.1344923973083496,-0.20816928148269653,0.04548107087612152,-1.2494159536485858,2.5299274806981966,-2.1144092730730364,0.16200579702854156,0.10575626790523529,-0.07581233233213425
245410.60753100002,0.10791647434234619,-0.08376133441925049,-0.01583564281463623,-1.2490203084644382,2.532577700750408,-2.1096086259621476,-0.06809864938259125,0.11155717074871063,0.03940826654434204
245410.62766700002,0.09341505169868469,0.05376625061035156,-0.03241121768951416,-1.2501315386088971,2.531143839692778,-2.1094255814084915,0.2503598630428314,0.05898548290133476,0.06807133555412292
245410.64780300003,0.048682600259780884,0.3326886296272278,-0.07482351362705231,-1.2574018728076768,2.5601248946966417,-2.0810504082080503,0.8332290649414062,-0.0005469964817166328,0.07840945571660995
245410.667939,0.060475945472717285,0.29579877853393555,-0.024873852729797363,-1.268871235202494,2.6109140240120774,-2.033638802965833,0.8258917331695557,-0.11577771604061127,0.3028838336467743
245410.688074,0.061101317405700684,0.2691982388496399,0.02098524570465088,-1.2792184875632453,2.6457200106803618,-2.0033197700623138,0.47200635075569153,-0.16607026755809784,0.25471630692481995
245410.70821,0.021953195333480835,0.13569486141204834,0.020896688103675842,-1.2845898416249106,2.6523902618335735,-2.000121550851631,-0.133192777633667,-0.12630270421504974,0.1747189611196518
245410.72834600002,-0.04239434003829956,0.04141700267791748,-0.034180283546447754,-1.2827893420258922,2.6159393774411845,-2.035895656190025,-0.7868790030479431,0.054205022752285004,0.0698724314570427
245410.74848200002,-0.037443727254867554,0.1724550724029541,0.02904735505580902,-1.274277968135026,2.5580413782947793,-2.0900469052356367,-0.9224010705947876,0.040325336158275604,-0.050343189388513565
245410.768618,-0.060527145862579346,0.5328953862190247,0.16570961475372314,-1.2682885592393054,2.528325741880414,-2.119476285680716,-0.07283041626214981,-0.1402585506439209,-0.01835862547159195
245410.788754,-0.0736570656299591,0.5463685393333435,0.20561526715755463,-1.272881916247005,2.5405652430591674,-2.113075118608568,0.5821828246116638,-0.3967333137989044,0.202333003282547
245410.808889,-0.028181076049804688,0.4038257598876953,0.1958608478307724,-1.2862572477053045,2.571987748798407,-2.0929893658438714,0.7325945496559143,-0.5751101970672607,0.47596827149391174
245410.829025,-0.014010012149810791,0.028273284435272217,0.18826830387115479,-1.3017356526501178,2.5849807895266337,-2.0929412952428996,0.3101273477077484,-0.6613448858261108,0.6361196041107178
245410.84916100002,0.028003811836242676,-0.23175477981567383,0.00689910352230072,-1.312938370348608,2.553131438747443,-2.1375559066202947,-0.4212659001350403,-0.712349534034729,0.7161963582038879
245410.86929700003,0.07995201647281647,-0.09618586301803589,-0.007851138710975647,-1.3202411858853909,2.502013367100954,-2.2012123734831612,-0.16212531924247742,-0.7005528211593628,0.6116161346435547
245410.889433,0.09635917842388153,-0.17479979991912842,-0.06933821737766266,-1.3264106989927287,2.4559603862366135,-2.2611654522592812,-0.44460153579711914,-0.7899835109710693,0.42248427867889404
245410.909568,0.026621177792549133,-0.27785754203796387,0.014058336615562439,-1.3272312242400612,2.4085779735764867,-2.3231718466044255,-0.3077526092529297,-0.7989344000816345,0.301596999168396
245410.929704,0.003624662756919861,-0.1402585506439209,0.0007544755935668945,-1.3271249345240435,2.3899594859799955,-2.357089399417252,0.0036642258055508137,-0.7813048958778381,0.020281445235013962
245410.94984000002,-0.0007135123014450073,-0.08427292108535767,0.07173870503902435,-1.329982470901364,2.4115304693332718,-2.3520006933745425,0.5651195645332336,-0.8013813495635986,-0.15078537166118622
245410.96997600002,0.0118817538022995,-0.07877922058105469,0.0895155817270279,-1.3366616873306054,2.460285299136128,-2.321206249115164,0.5023379921913147,-0.8380350470542908,-0.12406881153583527
245410.99011200003,-0.03383639454841614,-0.1587991714477539,0.2027132362127304,-1.336936263186126,2.477452396015638,-2.321336584311153,-0.1933097392320633,-0.7980847358703613,-0.128665953874588
245411.01024700003,-0.00957345962524414,-0.0628473162651062,0.07689917087554932,-1.332869329925465,2.472474563053119,-2.342128129868109,-0.016023192554712296,-0.8250302672386169,-0.11425426602363586
245411.030383,0.007621988654136658,0.04563337564468384,0.03271473944187164,-1.3341426591135586,2.4888732422399857,-2.3430546336254396,0.34489667415618896,-0.8605907559394836,-0.059311386197805405
245411.050519,0.0709722638130188,0.03485727310180664,0.09641529619693756,-1.3404886773103348,2.5102488983744764,-2.340411547986763,0.3842598795890808,-0.924842119216919,0.14829213917255402
245411.07065500002,0.05219064652919769,0.0044561028480529785,0.0833214521408081,-1.3486079964254085,2.51517374716898,-2.3539953675424266,0.24653595685958862,-0.9044785499572754,0.33729293942451477
245411.09079100002,0.09067535400390625,-0.043315589427948,0.030068516731262207,-1.3556967160982938,2.4917257955249106,-2.394567541713073,-0.09528227895498276,-0.8353288173675537,0.5160052180290222
245411.11092600002,0.07883892953395844,-0.033488452434539795,-0.04011523723602295,-1.3602456358299015,2.4326290459755544,-2.468311427170978,-0.31793251633644104,-0.7600659728050232,0.7157869935035706
245411.131062,0.07551451772451401,0.03630852699279785,-0.08514741063117981,-1.3643570356960455,2.349269171241205,-2.564423007350413,-0.34283775091171265,-0.6747849583625793,0.8784454464912415
245411.151198,0.043890565633773804,0.021462440490722656,-0.09701262414455414,-1.3678833129167,2.2538368125245083,-2.670224327307565,-0.3181169927120209,-0.5474414825439453,0.9486674070358276
245411.171334,0.024795837700366974,0.020734429359436035,-0.04246257245540619,-1.3694576874772215,2.1495386570465476,-2.7822353320826037,-0.371927946805954,-0.4307202994823456,1.0112457275390625
245411.19147000002,-0.004104834049940109,-0.002488851547241211,0.013279080390930176,-1.3683886807951375,2.0378234866015124,-2.899924067501429,-0.3885612189769745,-0.3960762321949005,1.0644546747207642
245411.21160537502,-0.013511575758457184,-0.005749881267547607,0.03597506880760193,-1.3640851165840795,1.9253697604217634,-3.017526245556095,-0.4644870460033417,-0.348533570766449,1.0822099447250366
245411.23174137503,-0.01688566245138645,0.0029178261756896973,0.05069898068904877,-1.356487419625393,1.8195359446745705,-3.1280762528101818,-0.35779231786727905,-0.3491525650024414,1.0515196323394775
245411.251877375,-0.06641483306884766,0.08030885457992554,0.04931780695915222,-1.3504787895559496,1.723140979309099,3.0545152566983975,-0.19045233726501465,-0.2866029143333435,1.0308407545089722
245411.272013375,-0.09762381762266159,0.04385644197463989,0.05504560470581055,-1.345913831561875,1.6367560342551701,2.9653100205934635,-0.031110310927033424,-0.19811315834522247,0.9026833772659302
245411.29214937502,-0.16671675443649292,0.03677648305892944,0.04973159730434418,-1.3402356700127835,1.56131232319142,2.8894073874035766,-0.10709606111049652,-0.061319176107645035,0.8481197357177734
245411.31228437502,-0.10975901037454605,0.09930229187011719,0.025927871465682983,-1.3333459813850403,1.4978451217048245,2.8267202147064268,-0.18403273820877075,-0.010845794342458248,0.7154285311698914
245411.33242037502,-0.14945513010025024,0.05479550361633301,0.04100051522254944,-1.3226710294561335,1.4575822565104046,2.7886937002546217,-0.516800045967102,0.12350961565971375,0.5369507074356079
245411.352556375,-0.13702702522277832,0.04826021194458008,0.08778782188892365,-1.3081312343019245,1.442411659296146,2.77841029662489,-0.6242806315422058,0.31233447790145874,0.3339512050151825
245411.372692375,-0.1223420649766922,0.17975270748138428,0.08671608567237854,-1.2971615726328765,1.438479860913753,2.7814700547495463,-0.29025349020957947,0.33462947607040405,0.1648857742547989
245411.392828375,-0.13194626569747925,0.29272711277008057,0.09155237674713135,-1.2960401994333504,1.4265195781420679,2.7759053311453314,0.3567405641078949,0.2295161336660385,0.21596306562423706
245411.412963375,-0.11926675587892532,0.2700175642967224,-0.009249299764633179,-1.3059031926842868,1.3859082317397762,2.739774531120669,0.8708180785179138,0.08571172505617142,0.4216027557849884
245411.43309937502,-0.14348794519901276,0.015109002590179443,-0.03730785846710205,-1.3159799450788163,1.3228503714571778,2.6805914132387065,0.5412585139274597,0.12374743819236755,0.5924118161201477
245411.45323537503,-0.13812275230884552,-0.2794331908226013,-0.09886252880096436,-1.3137567424680117,1.2743070709484172,2.6366230582361547,-0.14336667954921722,0.17136448621749878,0.5828569531440735
245411.473371375,-0.11286959052085876,-0.2639648914337158,-0.13762974739074707,-1.3018000159902905,1.2514273366357158,2.618228351492945,-0.5959610939025879,0.20062623918056488,0.5113582611083984
245411.493507375,-0.11427764594554901,-0.2455466389656067,-0.11397957801818848,-1.2841596059837155,1.2478018658937446,2.618998802755939,-0.7693756222724915,0.2182559221982956,0.4523217976093292
245411.513642375,-0.12227071821689606,-0.15244686603546143,-0.08469605445861816,-1.2672959835350621,1.2484064081214528,2.624407364918706,-0.6887738108634949,0.2565799653530121,0.3534255623817444
245411.53377837501,-0.1261219084262848,-0.07208263874053955,-0.08202347159385681,-1.2556300102366837,1.248921240665265,2.6304957810327787,-0.29739969968795776,0.29740995168685913,0.24391746520996094
245411.55391437502,-0.12663210928440094,-0.0195123553276062,-0.07445847988128662,-1.252336177830375,1.2398183026772003,2.628141238941964,0.1763460338115692,0.30809029936790466,0.19302472472190857
245411.57405037503,-0.10962319374084473,-0.016823768615722656,-0.017219454050064087,-1.2575329906731636,1.216301991231752,2.6120187496229947,0.5859960317611694,0.30914101004600525,0.1917746365070343
245411.594186375,-0.09621182084083557,-0.08235585689544678,-0.008977293968200684,-1.2660993673217387,1.1853066088920385,2.588562620898258,0.5788116455078125,0.3016623854637146,0.17559461295604706
245411.614321375,-0.08722160756587982,-0.12169051170349121,-0.0005197525024414062,-1.2722547092252217,1.158132514533821,2.568492137273733,0.3041245639324188,0.27518230676651,0.18646137416362762
245411.634457375,-0.04859273135662079,-0.16368961334228516,-0.021840542554855347,-1.272122872199239,1.1423714824454023,2.5584651112667363,-0.0457775816321373,0.2228449136018753,0.21325942873954773
245411.65459337502,-0.031393349170684814,-0.14763706922531128,-0.011240959167480469,-1.2669278423914518,1.1370375858167665,2.5570721238016643,-0.26324737071990967,0.14114275574684143,0.2108154445886612
245411.67472937502,-0.01993381977081299,-0.09574472904205322,-0.04254865646362305,-1.2596276213654178,1.137103601728378,2.55919897158471,-0.28927138447761536,0.06513001769781113,0.1822061687707901
245411.694865375,-0.015664920210838318,-0.08727133274078369,-0.05143105983734131,-1.2529532380551203,1.1383618156384485,2.561042410272468,-0.28186464309692383,-0.001762019470334053,0.15307970345020294
245411.71500037503,0.000586390495300293,-0.05580294132232666,-0.10645982623100281,-1.2471308299648471,1.1384179406322885,2.5603923066615786,-0.230104461312294,-0.05892108753323555,0.15860363841056824
245411.735136375,-0.004967093467712402,-0.07451587915420532,-0.12923911213874817,-1.2409203104026052,1.1381306399499236,2.55856844508224,-0.3031403422355652,-0.09275388717651367,0.17767587304115295
245411.755272375,-0.004611805081367493,-0.0520365834236145,-0.14149990677833557,-1.233593760965463,1.139661809474827,2.558130551545672,-0.3320939540863037,-0.0956713855266571,0.17480604350566864
245411.77540837502,0.0005855262279510498,-0.06112515926361084,-0.12583190202713013,-1.2262282507199416,1.1416412294841174,2.557764191414181,-0.2885422110557556,-0.13602758944034576,0.1697779893875122
245411.79554437503,0.03387811779975891,-0.010150551795959473,-0.13201728463172913,-1.2214417738434582,1.1407131973385314,2.5533488907938655,-0.10247752815485,-0.20947596430778503,0.10850317776203156
245411.81567937502,0.021304190158843994,-0.01074308156967163,-0.11425617337226868,-1.2201437385005256,1.1384629993623887,2.546621437435696,0.021097412332892418,-0.2370990812778473,0.03652592748403549
245411.835815375,0.02023462951183319,0.005436837673187256,-0.07364174723625183,-1.2206169114154166,1.136890229818249,2.5404108835681845,0.057468246668577194,-0.24006281793117523,-0.009115858934819698
245411.855951375,0.021306917071342468,0.07340860366821289,-0.08428490161895752,-1.222328756716011,1.1339768677878637,2.5325125055028694,0.12770694494247437,-0.26974332332611084,-0.008165376260876656
245411.876087375,0.01702307164669037,0.06731760501861572,-0.03160414099693298,-1.224488489207184,1.1311235743374506,2.5244391211558717,0.12014654278755188,-0.25928235054016113,-0.0429726243019104
245411.89622337502,-0.007573381066322327,0.11132454872131348,-0.06958022713661194,-1.2277829531052025,1.1280913977826672,2.5163736847279967,0.17511631548404694,-0.2603614628314972,-0.0734035074710846
245411.91635837502,-0.02089308202266693,0.07392686605453491,-0.0047235190868377686,-1.2316560218138524,1.128116992661084,2.5113353286431783,0.1707729697227478,-0.2349863201379776,-0.15762516856193542
245411.93649437503,-0.031379833817481995,0.09238255023956299,-0.037515997886657715,-1.2377857236898449,1.1313026999192592,2.5104233564869305,0.2697206437587738,-0.14282406866550446,-0.30670174956321716
245411.956630375,-0.050681933760643005,0.09492117166519165,-0.026821047067642212,-1.2481941414178948,1.1412761918267795,2.5185026156866424,0.41563475131988525,-0.0026759272441267967,-0.5562705397605896
245411.976766375,-0.08570550382137299,0.14540046453475952,0.056930139660835266,-1.2634529267076668,1.1611346100271325,2.5381689725028673,0.3987257182598114,0.07396593689918518,-0.8175583481788635
245411.99690237502,-0.10179059207439423,0.12046641111373901,0.07842734456062317,-1.2798188415037153,1.197644277813441,2.5743692654929085,0.4191776514053345,0.016454890370368958,-0.9272323846817017
245412.01703737502,-0.07761456072330475,0.0637059211730957,0.05304768681526184,-1.2974011158821115,1.2366536814041285,2.6110561037854927,0.4818607568740845,-0.07275567948818207,-0.8995528221130371
245412.03717337502,-0.10391077399253845,-0.11304992437362671,-0.06725111603736877,-1.3144718536850202,1.2769702317907694,2.6478100432369542,0.46786466240882874,-0.13738608360290527,-0.8409536480903625
245412.05730937503,-0.1139521449804306,-0.318878710269928,-0.03694523870944977,-1.3273177603009805,1.328361255030669,2.6949097706291436,0.0587422139942646,-0.1494433581829071,-0.8630526065826416
245412.077445375,-0.04631488770246506,-0.37124496698379517,0.09194767475128174,-1.333527202250135,1.3998787925625245,2.7608544659804566,-0.11922693997621536,-0.2183392345905304,-0.92482590675354
245412.097581375,-0.016336627304553986,-0.26857084035873413,0.17180538177490234,-1.3364104101448553,1.480696345020884,2.8343166676785625,-0.2838020622730255,-0.28904590010643005,-0.9625719785690308
245412.117716375,0.01858089491724968,-0.24793195724487305,0.17409275472164154,-1.3346043873299078,1.5735633373112834,2.918544015497645,-0.358938068151474,-0.30676552653312683,-1.090745210647583
245412.13785237502,0.03234747052192688,-0.14646828174591064,0.08118191361427307,-1.3334001294486095,1.6762754026466797,3.0123048378124935,-0.19514550268650055,-0.2964318096637726,-1.2108607292175293
245412.15798837502,-0.03154918923974037,-0.05324786901473999,-0.002049565315246582,-1.3310561232141391,1.786456162589505,3.1132750261752435,-0.3573383390903473,-0.31790241599082947,-1.3511029481887817
245412.178124375,-0.02827560156583786,-0.2031075358390808,0.20589780807495117,-1.316709835388542,1.9027367693520034,-3.0636949345770095,-1.0250468254089355,-0.3252290189266205,-1.4839198589324951
245412.198260375,-0.05350753292441368,-0.16688716411590576,0.26308777928352356,-1.2855652182458543,2.0034685680460957,-2.9717839780857505,-1.6148505210876465,-0.20743146538734436,-1.5310155153274536
245412.21839516668,-0.024336516857147217,-0.05346393585205078,0.20389044284820557,-1.2475966980568685,2.082399547376019,-2.8999873938585456,-1.5101834535598755,-0.14213287830352783,-1.5511764287948608
245412.2385311667,-0.015221349895000458,0.009819209575653076,0.14757654070854187,-1.2156596049183845,2.1550593389464643,-2.8342754606793115,-0.7885560989379883,-0.15611626207828522,-1.6229592561721802
245412.2586671667,-0.00581870973110199,0.06850290298461914,0.02567112445831299,-1.1978365566624753,2.236504848558695,-2.760859937227156,0.06670475006103516,-0.10700144618749619,-1.6670458316802979
245412.27880316667,0.032010823488235474,0.005636811256408691,-0.0023501813411712646,-1.1887294892391298,2.3294209562565262,-2.676138456014484,0.40912166237831116,-0.037580203264951706,-1.816263198852539
245412.29893916668,0.01070450246334076,-0.08899843692779541,-0.022515326738357544,-1.1804262695303904,2.4291199772765566,-2.583127521466193,0.6916687488555908,0.04227618873119354,-1.770227074623108
245412.31907416668,0.07851393520832062,-0.06248742341995239,-0.15430304408073425,-1.1773727356033148,2.534986373320681,-2.484265376417404,1.3661465644836426,0.04956836998462677,-1.7252312898635864
245412.33921016668,-0.00045236945152282715,0.09403246641159058,-0.16743049025535583,-1.1797403255228467,2.6698026835075095,-2.3577900001419163,2.241534948348999,0.11969348043203354,-1.9388914108276367
245412.3593461667,-0.009113103151321411,0.044241905212402344,-0.01719631254673004,-1.1833212414358572,2.842275469467938,-2.1956606990592804,2.7398552894592285,0.13970021903514862,-1.9746555089950562
245412.37948216667,-0.01144292950630188,-0.1542176604270935,0.05975709855556488,-1.1775168896099142,3.0171021061739287,-2.031780775321518,2.6584346294403076,0.03451680392026901,-1.924820065498352
245412.39961816667,-0.006479978561401367,-0.09051531553268433,0.0737314224243164,-1.1611632453449618,-3.1011410069627545,-1.8801341043614306,2.750046491622925,-0.06017739325761795,-1.9966175556182861
245412.41975316667,-0.002268850803375244,-0.08764570951461792,0.034803517162799835,-1.134939717692082,-2.92843687458889,-1.725198368062484,3.5523176193237305,-0.22382411360740662,-2.1360867023468018
245412.43988916668,-0.03464117646217346,-0.06453603506088257,0.15577346086502075,-1.0964890058126358,-2.750203240940009,-1.5707371639584264,3.779954433441162,-0.338794082403183,-2.2642464637756348
245412.46002516669,-0.12056803703308105,-0.08264940977096558,0.18281543254852295,-1.0458767938439542,-2.602757002893852,-1.4487017285861055,3.5389304161071777,-0.4564608335494995,-2.296698808670044
245412.4801611667,-0.13706815242767334,0.006247818470001221,0.15226103365421295,-0.9889090565836035,-2.4952742720964864,-1.3677991379162613,2.9064502716064453,-0.5942500233650208,-2.3686470985412598
245412.50029716667,-0.23757952451705933,-0.01918095350265503,0.08826273679733276,-0.9311514277337635,-2.4287140954499895,-1.3258018732924532,1.9509844779968262,-0.6190455555915833,-2.389186382293701
245412.52043216667,-0.3385090231895447,-0.024818718433380127,-0.008647024631500244,-0.877784808814479,-2.4068429828558817,-1.3185779230520087,0.574557363986969,-0.3210194706916809,-2.465066909790039
245412.54056816667,-0.41078561544418335,-0.09983175992965698,-0.09040616452693939,-0.8281140410069411,-2.4294984250395335,-1.3386354443790396,-0.76973557472229,0.014922507107257843,-2.666978120803833
245412.56070416668,-0.566378653049469,-0.044989943504333496,-0.0788576751947403,-0.777370755024063,-2.473260227659131,-1.365947958881582,-0.8901867866516113,0.40389686822891235,-2.7992374897003174
245412.5808401667,-0.43638259172439575,0.09440135955810547,-0.16066984832286835,-0.7197539361725921,-2.499514895273589,-1.3764512046214752,0.1099555566906929,0.3251614272594452,-3.0484118461608887
245412.6009751667,-0.455974280834198,-0.17629575729370117,-0.10715121030807495,-0.656768627629933,-2.514867649233591,-1.378745874424967,-0.13338221609592438,0.41175365447998047,-3.28631854057312
245412.6211111667,-0.33396661281585693,-0.323198139667511,-0.08286988735198975,-0.5939797870391946,-2.541475655336903,-1.3856891396469968,-0.992844820022583,0.4480836093425751,-3.2318761348724365
245412.64124716667,-0.28963685035705566,-0.48329728841781616,0.0837184339761734,-0.5351849212571586,-2.58586171678333,-1.4013838329357513,-1.4494242668151855,0.3338983654975891,-3.1523194313049316
245412.66138316668,-0.2539302706718445,-0.3483996093273163,-0.007944628596305847,-0.47725903551829435,-2.63069831679102,-1.4165189531510136,-1.399211049079895,0.32423996925354004,-3.18940806388855
245412.68151916668,-0.243147611618042,-0.09732422232627869,-0.14984361827373505,-0.41514643416971403,-2.6621118008140803,-1.423643127610815,-0.37183740735054016,0.32520198822021484,-3.339364767074585
245412.70165416668,-0.2702147364616394,-0.05293872952461243,-0.0918164849281311,-0.3470329542537959,-2.67505845900248,-1.4206983430083713,0.1459377110004425,0.42904210090637207,-3.429748058319092
245412.7217901667,-0.20123302936553955,0.0971134603023529,-0.0770646333694458,-0.27740234533691094,-2.67991106054938,-1.4130526892841615,0.4297035038471222,0.5033368468284607,-3.407344102859497
245412.7419261667,-0.2184852957725525,0.15267108380794525,0.02567845582962036,-0.20814252996452137,-2.6817431703646415,-1.403507256754703,0.46329382061958313,0.4988003969192505,-3.292067050933838
245412.76206216667,-0.14671671390533447,0.31751835346221924,0.05192272365093231,-0.142034659361293,-2.6821331225333505,-1.3939120289290106,0.6214168071746826,0.47270554304122925,-3.1058664321899414
245412.78219816668,-0.03552281856536865,0.3573283553123474,0.08657181262969971,-0.0804720719124657,-2.6802240248069693,-1.3852751937481627,0.6290481090545654,0.372161328792572,-2.855313539505005
245412.80233316668,-0.01413339376449585,0.3314127027988434,0.12123852968215942,-0.02442468078297817,-2.6797463340762153,-1.3779337332282233,0.43302643299102783,0.36380308866500854,-2.589853525161743
245412.82246916668,0.03165745735168457,0.335286021232605,0.10409894585609436,0.02590170669747134,-2.681455867959021,-1.3703820577306183,0.40066298842430115,0.42855456471443176,-2.314934015274048
245412.8426051667,0.04288482666015625,0.34113311767578125,0.045462846755981445,0.07028642213057426,-2.6817322681995774,-1.3608345927328618,0.4901987612247467,0.4782726764678955,-1.9990098476409912
245412.86274116667,0.138394296169281,0.2627618610858917,0.02082480490207672,0.10940024273339802,-2.6799754588269793,-1.3514824568414099,0.466233491897583,0.46147823333740234,-1.7269514799118042
245412.88287716667,0.1606895923614502,0.24049724638462067,0.0523238480091095,0.14236005562914802,-2.678503196678621,-1.3421022076587423,0.3430275619029999,0.5177367329597473,-1.3811324834823608
245412.90301216667,0.1910647749900818,0.1710231900215149,0.05794359743595123,0.1662799101114477,-2.681059778082816,-1.3313191446870338,0.10363823175430298,0.5198951363563538,-0.972724199295044
245412.92314816668,0.29144906997680664,0.312295138835907,0.10953766107559204,0.1816549304092548,-2.684870290028816,-1.3214595906361866,-0.16893638670444489,0.35909220576286316,-0.665542721748352
245412.9432841667,0.35754817724227905,0.10035182535648346,0.16330882906913757,0.19030453074847983,-2.692572194800945,-1.3155732319956257,-0.24589726328849792,0.11430822312831879,-0.34491437673568726
245412.9634201667,0.3405117392539978,0.16551907360553741,0.2040524184703827,0.19238418919470468,-2.6998157652358508,-1.3129742082347975,-0.4872724711894989,0.04445163905620575,-0.03386887535452843
245412.98355616667,0.25587713718414307,0.24086590111255646,0.05812057852745056,0.18776808063350856,-2.7089619283254205,-1.3091712810684777,-0.39624544978141785,0.17484888434410095,0.2664280831813812
245413.00369116667,0.25596797466278076,0.3012726306915283,0.03821030259132385,0.17901242243307341,-2.7099064354050797,-1.3043507910576644,0.11288609355688095,0.27060016989707947,0.5567513108253479
245413.02382716667,0.22228604555130005,0.22612319886684418,0.027322977781295776,0.16638876555282622,-2.6978101418417886,-1.3013976091619304,0.5919203758239746,0.20410005748271942,0.9657084345817566
245413.04396316668,0.1782512068748474,0.10311079025268555,0.11732244491577148,0.14748337862266214,-2.6793893704179057,-1.3007306831083092,0.5820373296737671,0.13154658675193787,1.299239158630371
245413.0640991667,0.18912529945373535,0.06472105532884598,0.11309295892715454,0.12219965299238572,-2.660678332679558,-1.3024628408578347,0.5302329659461975,-0.01622546836733818,1.6086958646774292
245413.0842351667,0.011423051357269287,0.12487683445215225,0.0883815586566925,0.09163405285915648,-2.641600852715218,-1.3049595046048827,0.5373101234436035,-0.047626446932554245,1.792312502861023
245413.1043701667,-0.04023867845535278,0.15605708956718445,0.0894756019115448,0.05855637488160954,-2.6192197977927942,-1.3085541784437908,0.6879386305809021,-0.13876087963581085,1.936937689781189
245413.12450616667,-0.09363847970962524,0.17014971375465393,0.1436212658882141,0.023728615594996366,-2.5954927573772744,-1.3135896851044533,0.7618039846420288,-0.28556516766548157,2.0347952842712402
245413.14464216668,-0.13166099786758423,0.35292357206344604,0.0915520191192627,-0.012524742285698125,-2.5643003756525187,-1.3212159214529051,1.358640432357788,-0.45996418595314026,2.201885461807251
245413.16477816668,-0.22527068853378296,0.3645811676979065,0.05785876512527466,-0.048172467122529296,-2.520749135286275,-1.3304688621112004,1.9581201076507568,-0.5676319003105164,2.2479517459869385
245413.1849141667,-0.347431480884552,0.37073007225990295,-0.010061293840408325,-0.08195258605364356,-2.469124556838494,-1.3375081960571775,2.1297905445098877,-0.433429092168808,2.1933062076568604
245413.20504950001,-0.39511382579803467,0.29081204533576965,-0.07276114821434021,-0.11412918070136557,-2.418527612987212,-1.3397710743588591,2.022805690765381,-0.27591821551322937,2.0699682235717773
245413.22518550002,-0.3908834457397461,0.39725345373153687,-0.12280261516571045,-0.14443163920899824,-2.3664024183524415,-1.337456158264762,2.3577051162719727,-0.15781855583190918,2.0486197471618652
245413.24532150003,-0.44674181938171387,0.5271998643875122,-0.16388003528118134,-0.171933905961551,-2.3034144350513963,-1.3291926233260074,3.0036251544952393,0.012017708271741867,2.036853790283203
245413.2654575,-0.5635668635368347,0.5002368688583374,-0.190435528755188,-0.19519898995107265,-2.2305278264659796,-1.312831112217907,3.2804501056671143,0.29372626543045044,1.9139071702957153
245413.2855935,-0.6803332567214966,0.37758347392082214,-0.1337851583957672,-0.21405912006967295,-2.154412608095619,-1.289018874306452,3.363340377807617,0.5417066812515259,1.816645860671997
245413.3057285,-0.6781164407730103,0.3452414870262146,-0.09874504804611206,-0.2300395083756881,-2.0786042565740117,-1.258590956667475,3.128007411956787,0.8162041902542114,1.8607368469238281
245413.32586450002,-0.46090930700302124,0.2588343620300293,-0.060779452323913574,-0.24831790572775514,-2.0095605870794504,-1.2239970170529828,2.578176736831665,0.9908180236816406,2.029101610183716
245413.34600050002,-0.24281781911849976,0.1932922601699829,-0.11672645807266235,-0.27159766344664515,-1.9485306413897776,-1.1865348456686913,2.080097198486328,1.185971975326538,2.221728801727295
245413.3661365,-0.10201406478881836,0.14105015993118286,-0.16019102931022644,-0.29947175279646,-1.8927796831401404,-1.144594567612603,1.7253354787826538,1.4303356409072876,2.402078866958618
245413.38627150003,-0.04629629850387573,0.0810806155204773,-0.14922061562538147,-0.3299486570231915,-1.83963544233142,-1.0972780734568417,1.4911324977874756,1.6142586469650269,2.485053539276123
245413.4064075,-0.045950353145599365,0.002745389938354492,-0.04364496469497681,-0.36074088770502727,-1.788278258401282,-1.046278784167179,1.2448623180389404,1.6914708614349365,2.468933582305908
245413.4265435,-0.01727735996246338,-0.13290956616401672,0.08734709024429321,-0.3926135151365775,-1.7441811824126627,-0.9968303333702037,0.5013079643249512,1.598870038986206,2.334651470184326
245413.44667950002,0.02602916955947876,-0.17409735918045044,0.2012280821800232,-0.4287681763730811,-1.7140154820320852,-0.9540310694473058,-0.1969902217388153,1.4835017919540405,2.163853406906128
245413.46681550003,0.00027424097061157227,-0.1706104874610901,0.2551107406616211,-0.4666445348968091,-1.6920367548069104,-0.9159815154941783,-0.43415847420692444,1.2906814813613892,2.112354040145874
245413.48695050002,0.05066150426864624,0.010039418935775757,0.34068822860717773,-0.504254868971041,-1.6700878307748839,-0.8816671876741308,-0.36483266949653625,1.120154619216919,2.0481181144714355
245413.5070865,0.0338597297668457,0.006751418113708496,0.35074543952941895,-0.5403935814378671,-1.6471585708213072,-0.8505913726298543,-0.529076337814331,0.7942458987236023,1.9314262866973877
245413.5272225,0.0006107687950134277,-0.12724709510803223,0.32669597864151,-0.5750819943346641,-1.6309008648209904,-0.8276573480034088,-0.6479125618934631,0.6874640583992004,1.5986515283584595
245413.5473585,-0.07901930809020996,-0.2349938154220581,0.2943190932273865,-0.6081230695040696,-1.6202130937483992,-0.8078528769572532,-0.8991987109184265,0.720075786113739,1.3183457851409912
245413.56749450002,-0.08663272857666016,-0.13494938611984253,0.3335135579109192,-0.6359965693267642,-1.6105543546293832,-0.7874943892061087,-0.22390013933181763,0.6801108121871948,1.2185171842575073
245413.58762950002,-0.027188599109649658,0.1771504282951355,0.3432866930961609,-0.6443914656803094,-1.5780206583485061,-0.7559258488385303,1.4093983173370361,0.553970456123352,1.061192274093628
245413.60776550003,0.09982043504714966,0.05280959606170654,0.467829167842865,-0.6290349538934535,-1.5278797334817145,-0.7184857743299297,2.3070483207702637,0.2685610055923462,0.8863374590873718
245413.6279015,0.09072309732437134,0.03813523054122925,0.3630419373512268,-0.6072906527688331,-1.4759375937792765,-0.6858028035857373,1.6071975231170654,-0.06788857281208038,0.942520022392273
245413.6480375,0.06913423538208008,-0.4865960478782654,0.4178006649017334,-0.6079000865350254,-1.4489977307288913,-0.6721774107494272,0.050722457468509674,-0.08002948760986328,0.7043529748916626
245413.66817350002,0.19205254316329956,-0.4173354506492615,0.27674055099487305,-0.6261211709705671,-1.447535765337895,-0.673231993595774,-1.1914149522781372,-0.15423651039600372,0.5220058560371399
245413.68830850002,0.2064405083656311,-0.10733789205551147,0.39690709114074707,-0.646324981209901,-1.4535704714031208,-0.6825191027343092,-0.4942390024662018,-0.3968694806098938,0.3321903347969055
245413.70844450002,0.20196998119354248,-0.12110251188278198,0.31602025032043457,-0.6587904188003874,-1.4581450185278184,-0.695391344003037,-0.7714799046516418,-0.5545394420623779,0.10565759241580963
245413.72858050003,0.16907429695129395,-0.15013551712036133,0.21546322107315063,-0.6757039257479781,-1.4760700594549765,-0.7173093932361113,-1.6378939151763916,-0.5316575765609741,0.03303665667772293
245413.7487165,0.06981027126312256,-0.23471641540527344,0.18017899990081787,-0.7054374287102367,-1.5162237082201706,-0.7512918284916208,-2.452171564102173,-0.40265342593193054,-0.2799479067325592
245413.7688515,0.10535645484924316,-0.07154518365859985,-0.06584322452545166,-0.7375573607338658,-1.5695061203743876,-0.794068603706685,-2.52776837348938,-0.322540819644928,-0.3738879859447479
245413.7889875,0.14265787601470947,0.0966259241104126,-0.09289026260375977,-0.7656648416356064,-1.627179823244353,-0.8384022257322729,-2.4384872913360596,-0.2244930863380432,-0.43841344118118286
245413.80912350002,0.25940513610839844,0.3404921889305115,-0.23942381143569946,-0.7846982577265033,-1.6838056112425162,-0.8830383802178152,-1.754156470298767,-0.275696724653244,-0.6685390472412109
245413.82925950002,0.29701346158981323,0.47664785385131836,-0.3449564576148987,-0.7907090177971974,-1.724022622709891,-0.917157060496391,-0.8288406133651733,-0.25573426485061646,-0.5859519839286804
245413.8493955,0.2787005305290222,0.5434250235557556,-0.5055302381515503,-0.7922873499408477,-1.7507294818420043,-0.9393226442825886,-0.9507861733436584,-0.016176734119653702,-0.3812532126903534
245413.86953050003,0.23483771085739136,0.5420433282852173,-0.6135571002960205,-0.7988618283848963,-1.775828076080155,-0.9544431668594232,-0.7746020555496216,0.32141220569610596,-0.11261641979217529
245413.8896665,0.21307742595672607,0.5594558715820312,-0.6202298402786255,-0.8057740034105956,-1.7920453475611706,-0.9566833026903168,-0.4188136160373688,0.5912676453590393,0.007776306010782719
245413.9098025,0.21874308586120605,0.49713021516799927,-0.5882434844970703,-0.8135960625248385,-1.7972710770872482,-0.9466413489049696,-0.3567013740539551,0.7270694375038147,0.27494966983795166
245413.92993850002,0.20802927017211914,0.4606006145477295,-0.45339033007621765,-0.8245672747221469,-1.7987504846094897,-0.9327020910413482,-0.4431628882884979,0.7642807364463806,0.5011705756187439
245413.95007450003,0.1585451364517212,0.35468345880508423,-0.37366431951522827,-0.8409957714156066,-1.8008697320591658,-0.918800203755621,-0.6150283217430115,0.7734500765800476,0.7219240069389343
245413.97020950002,0.08986556529998779,0.38483190536499023,-0.37456756830215454,-0.8598757624910717,-1.797874164226887,-0.9004889795988896,-0.27461302280426025,0.8209309577941895,0.8597079515457153
245413.9903455,0.00601622462272644,0.3793019652366638,-0.3756738305091858,-0.874603632094672,-1.78059484423063,-0.8696616342805712,0.20656949281692505,0.9223700165748596,0.955133318901062
245414.0104815,-0.01688516139984131,0.3015613555908203,-0.31584030389785767,-0.882584102943873,-1.7483348678860522,-0.8254023687045895,0.8484911322593689,1.0257543325424194,0.9751935601234436
245414.03061750002,-0.13378292322158813,0.13119429349899292,-0.22707462310791016,-0.882324059262355,-1.700903933991069,-0.7666314818910402,1.198821783065796,1.1279349327087402,1.0517261028289795
245414.0507525,-0.15537214279174805,0.12085646390914917,-0.12987780570983887,-0.8756624878528941,-1.6471050193133394,-0.7025092052085758,1.5692219734191895,1.1295658349990845,1.0303717851638794
245414.07088850002,-0.20843499898910522,0.06821489334106445,-0.03271681070327759,-0.8614160723525651,-1.5903042282551676,-0.6364142673047447,1.8740651607513428,1.1049034595489502,0.9536206126213074
245414.09102450003,-0.28747817873954773,0.10020792484283447,0.01584923267364502,-0.8361867294155042,-1.5298989480301122,-0.5691495240727357,2.4140708446502686,1.085661768913269,0.880283534526825
245414.1111605,-0.3901708722114563,0.04810500144958496,0.07644379138946533,-0.8003667598309888,-1.4709811079601127,-0.5033675135830602,2.6815624237060547,1.1780321598052979,0.750275731086731
245414.1312965,-0.43656954169273376,0.006832420825958252,0.07530397176742554,-0.7574784570041968,-1.4177063876139624,-0.4412819244268423,2.8084092140197754,1.2537049055099487,0.6444832682609558
245414.1514315,-0.44995325803756714,-0.09493154287338257,0.14034539461135864,-0.7113258472475162,-1.3743438990039176,-0.38621441934491657,2.6490111351013184,1.351876139640808,0.4289166033267975
245414.17156750002,-0.517381489276886,-0.08730196952819824,0.20672571659088135,-0.6619174030701918,-1.3413990335215762,-0.3376415063432261,2.8978710174560547,1.389804720878601,0.2029591202735901
245414.19170350002,-0.5631418228149414,-0.014163494110107422,0.2723233103752136,-0.6017724356091664,-1.3149743203031692,-0.2928174743350932,3.512025833129883,1.4973608255386353,-0.037939250469207764
245414.21183900003,-0.634263277053833,0.01839524507522583,0.2780182957649231,-0.5265339971204115,-1.2930508762389292,-0.24912866728670668,4.081460475921631,1.6879392862319946,-0.13404367864131927
245414.23197400002,-0.6399898529052734,-0.17818650603294373,0.36676543951034546,-0.44904668435495765,-1.2777710136642308,-0.20701168553314972,3.643646478652954,1.733357310295105,-0.30528682470321655
245414.25211,-0.6086946129798889,-0.28081610798835754,0.5611103773117065,-0.3887388918974155,-1.270671437780155,-0.1694198613240387,2.1993541717529297,1.7163704633712769,-0.29334041476249695
245414.272246,-0.4796512722969055,-0.30639803409576416,0.6337133049964905,-0.3547139395377524,-1.2697410545109271,-0.13786074445850519,1.3063337802886963,1.4181228876113892,-0.03597303852438927
245414.292382,-0.6313819885253906,-0.12205573916435242,0.6361851096153259,-0.3345610337871289,-1.264313750506192,-0.10943470469652168,0.883234977722168,1.1984916925430298,0.2907715141773224
245414.31251800002,-0.6421712040901184,-0.016988277435302734,0.485537588596344,-0.3199985700217374,-1.2531648947465233,-0.08353613741059827,0.5933019518852234,1.0161107778549194,0.5729520916938782
245414.33265300002,-0.5784798264503479,-0.18001788854599,0.44604265689849854,-0.31677420235120124,-1.2385278689834558,-0.06089238759682692,-0.22223201394081116,0.7843994498252869,0.7723978161811829
245414.35278900003,-0.5147596597671509,-0.33299392461776733,0.3100605607032776,-0.33036464290253337,-1.2229670024680812,-0.04286877132665373,-0.974825918674469,0.5706227421760559,0.7780261635780334
245414.372925,-0.4462941884994507,-0.248783141374588,0.3048105835914612,-0.356897702487232,-1.2091737404184697,-0.027487040971724486,-1.3425999879837036,0.5683736205101013,0.6190794110298157
245414.393061,-0.35770222544670105,-0.0501537024974823,0.32834625244140625,-0.37384971569005576,-1.197235528084478,-0.013811894825536084,-0.2630859315395355,0.37983718514442444,0.5148518085479736
245414.413196,-0.26995718479156494,-0.04905453324317932,0.3343520164489746,-0.36972194804633995,-1.187926512810488,-0.004043483784463307,0.5327122211456299,0.28402483463287354,0.32603415846824646
245414.43333200002,-0.1949639916419983,-0.17777621746063232,0.2315051555633545,-0.35747569927639783,-1.1829775335794692,0.0017617609897428409,0.7382755279541016,0.10285325348377228,0.15480516850948334
245414.45346800002,-0.17447981238365173,-0.09666046500205994,0.09486454725265503,-0.3407176062554893,-1.180001812733713,0.0045121510086093865,0.8689217567443848,0.04654017835855484,0.17779304087162018
245414.47360400003,-0.09025552123785019,-0.04502710700035095,0.0073493123054504395,-0.3190591984442518,-1.1763235716411182,0.005126061608870736,1.284557580947876,-0.050466086715459824,0.167924702167511
245414.49374,-0.09208956360816956,-0.07334044575691223,-0.03557324409484863,-0.2938601412021693,-1.173008740217851,0.005630514993661403,1.1539944410324097,0.0123574398458004,0.13267935812473297
245414.513875,-0.05575647950172424,-0.05578744411468506,-0.034086406230926514,-0.2716085567436971,-1.169989323163209,0.006605993227812474,1.0864182710647583,-0.019339147955179214,0.15419158339500427
245414.534011,-0.042298052459955215,-0.03650316596031189,-0.04945188760757446,-0.25057338502178556,-1.1674889616852029,0.006190764795192272,0.969039797782898,-0.05881766974925995,0.07785605639219284
245414.55414700002,-0.12906065583229065,-0.03797745704650879,-0.09108716249465942,-0.2317109899384395,-1.1666802311141728,0.005692925415197291,0.8854349851608276,-0.007978015579283237,0.01791203022003174
245414.57428300002,-0.14959466457366943,0.06305976212024689,-0.13502222299575806,-0.21555260023468012,-1.1666252926431444,0.006136237568767687,0.7296516299247742,0.056153032928705215,0.011295939795672894
245414.59441800002,-0.0753612294793129,0.0722675770521164,-0.13685822486877441,-0.2010880743450686,-1.1662957859854262,0.007021320443145916,0.7593018412590027,0.012590643018484116,0.01966119557619095
245414.61455400003,-0.008431743830442429,0.11334019899368286,-0.13010889291763306,-0.18302914156339098,-1.1655229562488953,0.005999022467272271,1.006525993347168,-0.1243896633386612,0.07360351830720901
245414.63469,0.019460342824459076,0.06550686061382294,-0.20103520154953003,-0.16375491068734885,-1.164670198154319,0.0031031477352964415,0.8510133028030396,-0.1406020224094391,0.011472241021692753
245414.654826,0.009237950667738914,-0.03033393621444702,-0.20097845792770386,-0.1513641670346449,-1.1657645212810381,0.00042572883442719336,0.356317400932312,-0.09246564656496048,-0.10303942859172821
245414.67496200002,0.16291970014572144,-0.10459516942501068,-0.24020379781723022,-0.1506199802309857,-1.1672684844626482,-0.0006498437665913934,-0.3037365674972534,0.04125060513615608,-0.041608553379774094
245414.69509700002,0.3417222201824188,-0.11826050281524658,-0.20643049478530884,-0.15995739382028068,-1.1672761117146777,0.0001374338538811178,-0.5453008413314819,0.07316938787698746,-0.00036364607512950897
245414.71523300002,0.3922905921936035,-0.03913474082946777,-0.1623321771621704,-0.1678050943263256,-1.1674234358432656,0.0014213991555694163,-0.2699480652809143,0.10803292691707611,0.05299118906259537
245414.735369,0.40382120013237,-0.08589790761470795,-0.0885244607925415,-0.17148448004852407,-1.1680631965434327,0.0030069762677399337,-0.13698352873325348,0.08774939179420471,0.0183530505746603
245414.755505,0.4610643982887268,-0.08037500083446503,-0.06501060724258423,-0.17743495104187756,-1.167178716944502,0.00432022184441259,-0.36942920088768005,0.0952218770980835,0.04075183346867561
245414.77564,0.40155038237571716,-0.034802258014678955,-0.08736419677734375,-0.18457593781125387,-1.165319582740738,0.0063952074486596094,-0.3345121443271637,0.10758231580257416,0.11485029011964798
245414.795776,0.39318808913230896,0.019401922821998596,0.011444926261901855,-0.19146735403381687,-1.1624078713148212,0.010196653106973241,-0.3788307309150696,0.2255243957042694,0.14011703431606293
245414.81591200002,0.29269570112228394,0.07503165304660797,-0.09507197141647339,-0.19842362445576273,-1.1602691128777134,0.016481562321438548,-0.2728198766708374,0.35804224014282227,0.06075909361243248
245414.83604800003,0.24447456002235413,0.015365377068519592,-0.1278173327445984,-0.20367604982398213,-1.1599158536796346,0.025572762272802,-0.23352693021297455,0.5465918779373169,-0.03657198324799538
245414.85618300003,0.19927436113357544,0.042716339230537415,-0.08787626028060913,-0.20555430954277165,-1.1607550111662097,0.03720452962216169,0.031463366001844406,0.6175010204315186,-0.03293836861848831
245414.876319,0.19325555860996246,0.038232624530792236,0.035902202129364014,-0.20310537340515422,-1.16130389722136,0.04930892533683772,0.18556678295135498,0.5566443800926208,-0.011837609112262726
245414.896455,0.20082171261310577,0.047560542821884155,0.16487228870391846,-0.19954976222494827,-1.161744242789701,0.05864525596647909,0.15307123959064484,0.3711082339286804,-0.014321273192763329
245414.91659100002,0.19990691542625427,-0.025540918111801147,0.20865076780319214,-0.19959298131095496,-1.1619541741090837,0.06455645683561606,-0.18480391800403595,0.26462963223457336,-0.0154749546200037
245414.93672700002,0.15450677275657654,-0.006714537739753723,0.16978079080581665,-0.2047205251619627,-1.1619433352062658,0.06945617333763918,-0.28640350699424744,0.21142953634262085,-0.012409123592078686
245414.95686200002,0.14247921109199524,-0.022670626640319824,0.14591515064239502,-0.21070392344156513,-1.1611345496612993,0.07431920505931983,-0.21850630640983582,0.24157314002513885,0.026962250471115112
245414.97699800003,0.12525776028633118,0.043848440051078796,0.16209310293197632,-0.21158727052407197,-1.1611532629408279,0.07972781609959538,0.06940937042236328,0.28868767619132996,-0.03623509407043457
245414.997134,0.127594456076622,-0.05114147067070007,0.1755618453025818,-0.20912608930774942,-1.1626306276412335,0.08538099375628974,0.21867230534553528,0.30607932806015015,-0.07555880397558212
245415.01727,0.06534659117460251,-0.06093783676624298,0.14009851217269897,-0.2054152985282261,-1.1633180836193244,0.09189379619879454,0.10194609314203262,0.2819199562072754,0.019585561007261276
245415.037405,0.15789279341697693,-0.009395971894264221,0.21022993326187134,-0.20276870436145336,-1.1636006380751338,0.09634802264882869,0.18193404376506805,0.17236930131912231,-0.0002733649453148246
245415.05754100002,0.1930769383907318,-0.008933916687965393,0.22228598594665527,-0.19667712123361988,-1.1638979873354462,0.0987016224956684,0.49826711416244507,0.08396647125482559,0.013660294003784657
245415.07767700002,0.19078174233436584,0.06860917806625366,0.1475224494934082,-0.1828971190592023,-1.1646926384523593,0.100146155683002,0.7652348279953003,0.09388478845357895,0.03894248232245445
245415.09781300003,0.22886472940444946,-0.038914456963539124,0.10358816385269165,-0.16883531358247394,-1.1650787264385492,0.10148525634840903,0.6329577565193176,0.009387748315930367,0.020479584112763405
245415.117949,0.27291691303253174,-0.10962362587451935,0.13546782732009888,-0.16046706896133328,-1.164865384516211,0.10120386839405351,0.0757378414273262,-0.03147543966770172,0.032147690653800964
245415.138084,0.25005072355270386,-0.06053394079208374,0.060018956661224365,-0.1621654145212298,-1.1641890653924232,0.1011784421316378,-0.19213999807834625,0.04213797301054001,0.037942998111248016
245415.15822,0.2836974263191223,0.05171328783035278,0.04724198579788208,-0.1646825609707961,-1.162882094943689,0.1024945195165188,-0.043920114636421204,0.046245187520980835,0.04284587502479553
245415.17835600002,0.28198039531707764,0.01637771725654602,0.021035194396972656,-0.16520466049906996,-1.162123587222676,0.10338252548549236,-0.07383251935243607,0.039395447820425034,0.015926910564303398
245415.19849200002,0.273030549287796,-0.04144701361656189,0.024838387966156006,-0.1678133978429682,-1.1616927113914344,0.10421439128976723,-0.14689040184020996,0.01912604086101055,-0.008202660828828812
245415.21862762503,0.2785714268684387,-0.050648972392082214,0.047520339488983154,-0.17052328569239936,-1.1615109176103113,0.10447879766176431,-0.13062047958374023,0.00401180237531662,-0.015142058953642845
245415.238763625,0.2954453229904175,-0.07926805317401886,0.051991820335388184,-0.17362977034059168,-1.1612912373058646,0.10614234656916995,-0.09320670366287231,-0.04020315036177635,-0.04760412871837616
245415.258899625,0.27973246574401855,-0.014854982495307922,0.07327896356582642,-0.1724931723146939,-1.162061237950123,0.1082671609868981,0.24228566884994507,-0.11038011312484741,-0.0702817440032959
245415.27903562502,0.26850655674934387,-0.030746176838874817,0.06946432590484619,-0.16578186097732417,-1.1641590519840488,0.10949200107785355,0.32942941784858704,-0.1801188737154007,-0.1444968432188034
245415.29917062502,0.21477073431015015,-0.08488930761814117,0.06576228141784668,-0.16014264736093847,-1.1673820768244485,0.1116237756779953,0.13795039057731628,-0.2575678825378418,-0.23361660540103912
245415.31930662502,0.10686925798654556,-0.0705764889717102,0.018588244915008545,-0.16008072900799578,-1.1723445475919794,0.11012082768182589,-0.1295621395111084,-0.32282623648643494,-0.3362433910369873
245415.339442625,0.08831778913736343,0.02916625142097473,0.0073354244232177734,-0.16252736599189832,-1.1790702350269755,0.10297709797760277,-0.04556594789028168,-0.41167524456977844,-0.3516868054866791
245415.359578625,0.09977075457572937,0.08979837596416473,0.01824396848678589,-0.16338422700940605,-1.1850360794426893,0.0925248704982343,-0.0369361974298954,-0.5164793729782104,-0.22827669978141785
245415.379713625,0.014405705034732819,0.004876092076301575,0.030094802379608154,-0.1673672278335978,-1.1888952510361568,0.08063342649073636,-0.3157062530517578,-0.5935345888137817,-0.2027588188648224
245415.399849625,-0.12680268287658691,-0.006915658712387085,0.014809250831604004,-0.17507553736927312,-1.1926877763881152,0.06719544895279547,-0.39725327491760254,-0.6637029051780701,-0.2380204051733017
245415.41998562502,-0.22887949645519257,0.013559848070144653,0.015975534915924072,-0.18312542278551708,-1.197447043242151,0.052628822002816676,-0.35388246178627014,-0.6669077277183533,-0.265689879655838
245415.44012162503,-0.279850035905838,0.06431393325328827,0.018424510955810547,-0.18891346167659825,-1.2021711840459421,0.038447405881596085,-0.2155371457338333,-0.6493298411369324,-0.21036002039909363
245415.460257625,-0.29952308535575867,0.052678048610687256,0.051467716693878174,-0.19344502012583892,-1.2054709482495347,0.024702484162958296,-0.2519167959690094,-0.6515753865242004,-0.12443286925554276
245415.480392625,-0.35456395149230957,-0.004761487245559692,0.06895709037780762,-0.20049912844476311,-1.20728796977748,0.011113105393004953,-0.46529367566108704,-0.641901433467865,-0.07963423430919647
245415.500528625,-0.427257776260376,-0.04522630572319031,0.09997904300689697,-0.21137819980617978,-1.208954091269987,-0.001907597234860348,-0.5611693263053894,-0.619849681854248,-0.08980324864387512
245415.52066462502,-0.4264017641544342,0.0069935619831085205,0.09952211380004883,-0.22104418771984105,-1.2113953171201857,-0.01497260792111543,-0.3581734597682953,-0.6091157793998718,-0.13219064474105835
245415.54080062502,-0.4357970356941223,0.07250520586967468,0.07629901170730591,-0.22518473728666827,-1.2142118545807858,-0.027454412143846692,-0.08773159980773926,-0.5603735446929932,-0.12261871993541718
245415.56093562502,-0.4063662588596344,0.04251658916473389,0.03558272123336792,-0.22633286772917127,-1.2164191566308276,-0.03902027540113596,-0.047202594578266144,-0.5191774964332581,-0.09720177948474884
245415.58107162503,-0.38151171803474426,0.02003784477710724,-0.0013260841369628906,-0.22758830522632498,-1.218398021562272,-0.04973772002834176,-0.10161882638931274,-0.48949572443962097,-0.07715403288602829
245415.601207625,-0.2975007891654968,-0.00045724213123321533,-0.006791591644287109,-0.23069323841919145,-1.219695438417134,-0.059769117137495595,-0.19846823811531067,-0.4797050654888153,-0.02661282569169998
245415.621343625,-0.2766280472278595,0.02915768325328827,-0.07850873470306396,-0.23383165235164852,-1.220230034192714,-0.06921183057084979,-0.07366172224283218,-0.42918941378593445,-0.008659925311803818
245415.641478625,-0.24376828968524933,0.016895458102226257,-0.15191733837127686,-0.23304144671144658,-1.219920478918595,-0.07752518241633813,0.14118245244026184,-0.3819243609905243,0.01094892993569374
245415.66161462502,-0.26291632652282715,-0.02663584053516388,-0.19051653146743774,-0.22971592699458818,-1.2195630027500195,-0.08421078281260702,0.18204337358474731,-0.27692994475364685,-0.002811623737215996
245415.68175062502,-0.24742171168327332,-0.027287572622299194,-0.20335263013839722,-0.22601478369189282,-1.2193572232802536,-0.08906461002335805,0.18060597777366638,-0.17739208042621613,-0.0065704090520739555
245415.70188662503,-0.27412569522857666,0.018053218722343445,-0.15796363353729248,-0.22120362033747423,-1.219459216600555,-0.09183965506130387,0.3420080542564392,-0.07109946012496948,-0.03273303806781769
245415.72202162503,-0.29831981658935547,0.047855645418167114,-0.12857645750045776,-0.2123736866768035,-1.2191580353310805,-0.09218449589772344,0.5044601559638977,0.061899516731500626,0.0026449270080775023
245415.742157625,-0.2924194037914276,-0.00042110681533813477,-0.12436717748641968,-0.20251670966514304,-1.217630790815278,-0.08989206080393694,0.47469013929367065,0.15218201279640198,0.06791553646326065
245415.762293625,-0.2814740240573883,-0.01207171380519867,-0.08439069986343384,-0.19379395828750554,-1.2149101924809456,-0.08621134439246321,0.39950305223464966,0.20068039000034332,0.1359768956899643
245415.78242962502,-0.2811850905418396,-0.010006338357925415,-0.03267323970794678,-0.18727713855613906,-1.2113123819597806,-0.08123930149780649,0.3068576157093048,0.28721919655799866,0.169979065656662
245415.80256462502,-0.27027544379234314,0.01977001130580902,0.007516920566558838,-0.18104654678733928,-1.2072600134298905,-0.07479613292532447,0.3633967339992523,0.33850598335266113,0.17518474161624908
245415.82270062502,-0.24485671520233154,0.00999923050403595,0.016115546226501465,-0.17345595104963416,-1.2031130685613016,-0.06782729460329792,0.38147860765457153,0.3484598994255066,0.1713726967573166
245415.842836625,-0.258124440908432,-0.0287771075963974,0.027961671352386475,-0.16765345016722355,-1.1995859082592042,-0.060090776140174613,0.20666992664337158,0.42020049691200256,0.15886089205741882
245415.862972625,-0.21695098280906677,-0.02569785714149475,0.032384276390075684,-0.1656450178631779,-1.1961829257443988,-0.051476235673547574,0.026588715612888336,0.4301239550113678,0.1579277217388153
245415.883108625,-0.18481917679309845,-0.010976031422615051,0.056699931621551514,-0.16547777205989503,-1.1931643757436707,-0.04304636000712361,0.03678596019744873,0.40885302424430847,0.13684214651584625
245415.903243625,-0.1333685964345932,0.005299955606460571,0.056667983531951904,-0.16487969138006442,-1.1906736106954134,-0.0353616512687277,0.008461999706923962,0.36176958680152893,0.11992547661066055
245415.92337962502,-0.07435360550880432,-0.017051175236701965,0.03446716070175171,-0.16552636671053947,-1.1888458511010531,-0.02857993467932865,-0.06086789444088936,0.3265363276004791,0.07711330056190491
245415.94351562503,-0.03780943900346756,-0.023245781660079956,0.004854559898376465,-0.16763022807024108,-1.1875645913420088,-0.022412577959013594,-0.12767502665519714,0.30748409032821655,0.06611631065607071
245415.963651625,0.015655014663934708,-0.014271795749664307,-0.007850885391235352,-0.17060048124654745,-1.1864652744385327,-0.01681543505556552,-0.17562457919120789,0.2685377299785614,0.05528736487030983
245415.983786625,0.09420756250619888,-0.004768192768096924,-0.0054059624671936035,-0.17397953366036978,-1.1860395129605683,-0.012363266686432653,-0.1239093542098999,0.20708759129047394,-0.00695736613124609
245416.003922625,0.11734715104103088,0.0445532351732254,-0.038557469844818115,-0.1745941885355694,-1.186714199991463,-0.008916543760863154,0.07276748865842819,0.19813431799411774,-0.047689881175756454
245416.02405862501,0.16144849359989166,0.029416903853416443,-0.06273156404495239,-0.1723785241095626,-1.1878541887739889,-0.005292206234430212,0.10127813369035721,0.2216503918170929,-0.0556548647582531
245416.04419462502,0.22731228172779083,-0.014606192708015442,-0.04137146472930908,-0.17067657014528734,-1.1889319625926653,-0.0016588924185411069,0.08223076164722443,0.18569204211235046,-0.037037771195173264
245416.06432962502,0.26712268590927124,0.016791313886642456,-0.01175379753112793,-0.16823580364495158,-1.189293525125978,0.0011274766712606095,0.180655375123024,0.13249441981315613,0.008303078822791576
245416.08446562503,0.2999897003173828,0.0361853688955307,-0.017571985721588135,-0.1636252290995913,-1.1891678976348325,0.002766366882720061,0.23546428978443146,0.079484723508358,0.011140943504869938
245416.104601625,0.34034228324890137,-0.0005821585655212402,-0.013420045375823975,-0.158363029773211,-1.1895605203679882,0.0036363141195216815,0.428688108921051,0.04726322367787361,-0.05165266618132591
245416.124737625,0.33841025829315186,0.14041295647621155,-0.024610042572021484,-0.1448526118498725,-1.1911513506071678,0.003915921640756928,0.8965672850608826,0.032210417091846466,-0.08153919875621796
245416.144872625,0.30375078320503235,0.14614394307136536,-0.0961083173751831,-0.12311830720649572,-1.192935480750464,0.003849781867937023,1.1603963375091553,0.04167937487363815,-0.058279942721128464
245416.16500862502,0.25160467624664307,0.11374448984861374,-0.15102052688598633,-0.0992479701600498,-1.194153874096139,0.004889130754528848,1.2588908672332764,0.1327415555715561,-0.01636524870991707
245416.18514462502,0.19033518433570862,0.21022719144821167,-0.17499148845672607,-0.07082261480864303,-1.1937320722707645,0.0077280806342963125,1.7128862142562866,0.25006940960884094,0.057960379868745804
245416.20528062503,0.12466965615749359,0.2855636179447174,-0.18781113624572754,-0.03132080817112969,-1.191543762955307,0.013811065967288016,2.1003024578094482,0.3953293263912201,0.19954468309879303
245416.22541566667,0.08934105932712555,0.08856312930583954,-0.21972697973251343,0.009599024595744965,-1.1871816265463497,0.022783538420655187,2.0028817653656006,0.500460684299469,0.31501612067222595
245416.24555166668,0.018584799021482468,0.17281979322433472,-0.19899070262908936,0.05262005036702988,-1.1812572553473666,0.03423415149562812,2.2554428577423096,0.6787654161453247,0.41450971364974976
245416.2656876667,-0.041059818118810654,0.20777596533298492,-0.15971970558166504,0.10237914071942876,-1.1733199465622888,0.04899577760567542,2.5756566524505615,0.8650431036949158,0.6002942323684692
245416.2858236667,-0.07457644492387772,0.11754858493804932,-0.06184947490692139,0.1529803747531027,-1.162633305829126,0.0662271992032159,2.3121626377105713,0.9667777419090271,0.7213647365570068
245416.3059586667,-0.06992480158805847,-0.0052598267793655396,-0.019920051097869873,0.19681398478631285,-1.1504720190328133,0.08356579813307097,2.0009098052978516,0.9708307981491089,0.7683807015419006
245416.32609466667,-0.08719716221094131,0.015044376254081726,0.020528435707092285,0.23624517161442776,-1.138057050594731,0.10062468456590869,1.7557286024093628,0.993733286857605,0.7916066646575928
245416.34623066668,-0.06305982172489166,0.07369038462638855,0.06031376123428345,0.27142297757140044,-1.125209156616739,0.11799727067021783,1.6418182849884033,1.053007960319519,0.8237372040748596
245416.36636666668,-0.02896799147129059,0.07008469104766846,0.10379350185394287,0.30559282568349183,-1.1118452050133696,0.13509044103692938,1.5439389944076538,1.0093061923980713,0.8440991640090942
245416.38650166668,-0.02107568085193634,0.04385334253311157,0.11420637369155884,0.3367091879673779,-1.0983809072971842,0.15018928614459884,1.324704885482788,0.9223204255104065,0.867639422416687
245416.4066376667,-0.01816137135028839,0.026527851819992065,0.1267458200454712,0.3631629696940619,-1.0835089533099131,0.16271450255963515,1.0627667903900146,0.8354600667953491,0.9101974964141846
245416.4267736667,-0.009461179375648499,0.023577570915222168,0.13740527629852295,0.38518991462746116,-1.0674529472643965,0.17265570188796517,0.8969776630401611,0.7468174695968628,0.893883228302002
245416.44690966667,0.012518644332885742,0.052676260471343994,0.14071708917617798,0.4059261696704288,-1.0524856771335416,0.18125178057321126,0.9070822596549988,0.7061122059822083,0.7940434813499451
245416.46704566668,0.004994064569473267,0.026750683784484863,0.12829357385635376,0.4265795860870397,-1.0395279732960376,0.18960414527109262,0.8769558668136597,0.6654688119888306,0.7337279319763184
245416.48718066668,0.02223290503025055,-0.014626771211624146,0.10457640886306763,0.4439002930467682,-1.0267528238239425,0.19606746550522075,0.6393678188323975,0.5666975378990173,0.7081946134567261
245416.50731666668,0.010968521237373352,-0.01153746247291565,0.13490158319473267,0.45777546357316745,-1.013712212810367,0.20089807974846227,0.5089470148086548,0.516106367111206,0.6891183853149414
245416.5274526667,0.007520079612731934,0.023831963539123535,0.13481289148330688,0.46939242715017737,-1.0011001769797947,0.2047396705094413,0.43305471539497375,0.4416825473308563,0.6276933550834656
245416.54758866667,0.00640513002872467,0.043705254793167114,0.14113324880599976,0.4802082837816793,-0.9898005047643872,0.2079731313087216,0.4156852066516876,0.39534974098205566,0.5718064308166504
245416.56772366667,0.014685377478599548,0.01461803913116455,0.14360952377319336,0.49057192026347707,-0.9796931857935104,0.21069260387924887,0.401508092880249,0.3542083501815796,0.5043184161186218
245416.58785966667,0.014527931809425354,-0.004142671823501587,0.16442197561264038,0.4991286371116099,-0.9709197951460371,0.2130571376831882,0.26605331897735596,0.2874673902988434,0.4303179681301117
245416.60799566668,0.03273157775402069,-0.014868766069412231,0.13719117641448975,0.5050131664442598,-0.96248345086558,0.21365027715256732,0.16325974464416504,0.18614326417446136,0.40554603934288025
245416.6281316667,0.007462948560714722,0.021275728940963745,0.14712876081466675,0.5097926718519411,-0.9542055876001945,0.2131543593242886,0.17310628294944763,0.1689569056034088,0.3947106897830963
245416.64826666669,0.02070656418800354,0.07054749131202698,0.10887205600738525,0.5144852161126318,-0.9461923377741552,0.21214922413990236,0.14028429985046387,0.12427385151386261,0.3741292655467987
245416.6684026667,0.030197307467460632,-0.0061900317668914795,0.05496406555175781,0.5169571514074828,-0.9381118852885154,0.2102075842979098,-0.07529175281524658,0.07995574921369553,0.3526969254016876
245416.68853866667,0.04774843156337738,-0.06130757927894592,0.05951845645904541,0.5140601500985927,-0.9296691479432685,0.20682658465946255,-0.3193317651748657,-0.0013543777167797089,0.3043203353881836
245416.70867466668,0.039286643266677856,-0.03591659665107727,0.07090228796005249,0.5089335484123622,-0.9216179827763279,0.20243264436232014,-0.33133313059806824,-0.04271690919995308,0.286838561296463
245416.72880966667,0.053514957427978516,-0.059067726135253906,0.09657210111618042,0.5024759412728462,-0.9134123310961278,0.1968603920140337,-0.42807939648628235,-0.11341407150030136,0.274846613407135
245416.74894566668,0.06877265870571136,-0.0577448308467865,0.1326054334640503,0.4938031982455356,-0.9055175238426091,0.18990231747424322,-0.5950455665588379,-0.21263031661510468,0.23304004967212677
245416.7690816667,0.08019542694091797,-0.15015235543251038,0.18141615390777588,0.478236721087435,-0.8972321233589893,0.18029295081482666,-1.1119457483291626,-0.3575388491153717,0.19239301979541779
245416.7892176667,0.08995221555233002,-0.21700522303581238,0.23786228895187378,0.4503803370908376,-0.8880169501871382,0.1675583761254252,-1.749461054801941,-0.5019232630729675,0.1407223790884018
245416.8093526667,0.10269753634929657,-0.2041778564453125,0.30642521381378174,0.4108775881385737,-0.877578208989881,0.15121461109044887,-2.264631509780884,-0.6936007738113403,0.1794806867837906
245416.82948866667,0.08923887461423874,-0.23846402764320374,0.3105623126029968,0.35886509397670124,-0.8652235897820518,0.13079138960897088,-3.046098232269287,-0.8693781495094299,0.17567503452301025
245416.84962466668,0.06173715740442276,-0.13345462083816528,0.3179401159286499,0.2948722614710802,-0.8550624683444448,0.10866972399792997,-3.28024959564209,-0.9741517901420593,0.023677773773670197
245416.86976066668,0.022074878215789795,0.007433503866195679,0.2775449752807617,0.2322953353309184,-0.8502039229055119,0.08742196506429192,-2.882240056991577,-0.9965700507164001,-0.16052934527397156
245416.88989566668,0.009710058569908142,0.0037066489458084106,0.1821352243423462,0.17790717971423825,-0.8504290277256206,0.0677966355699099,-2.5913684368133545,-0.9458045959472656,-0.2790845036506653
245416.9100316667,0.029182016849517822,-0.12386057525873184,0.13681423664093018,0.12476914589834598,-0.8541197703022971,0.050008540526621154,-2.6429412364959717,-0.8805262446403503,-0.39133167266845703
245416.9301676667,0.05758427456021309,-0.1262013018131256,0.10381859540939331,0.07161376657101062,-0.8599072659417903,0.033266390097172936,-2.6235196590423584,-0.8477941155433655,-0.38104015588760376
245416.95030366667,0.07361907511949539,-0.10246379673480988,0.1761469841003418,0.01827999681166791,-0.8666428672199231,0.01570914791204618,-2.6890017986297607,-0.9113335013389587,-0.4469536542892456
245416.97043866667,0.03134460747241974,0.02388361468911171,0.2535780668258667,-0.03596913178511902,-0.877440250401038,-0.0019116374376511114,-2.544593572616577,-0.8050745129585266,-0.6614440679550171
245416.99057466668,0.06091994047164917,0.13717994093894958,0.12144935131072998,-0.08069631261754467,-0.8914631563652246,-0.01787296366067019,-1.950730323791504,-0.7397195100784302,-0.6484335064888
245417.01071066668,0.10954457521438599,0.02973797917366028,0.0475614070892334,-0.11658307723979967,-0.9063749572174402,-0.033330418488820276,-1.7691093683242798,-0.6349695324897766,-0.7087125182151794
245417.0308466667,0.12321265041828156,-0.11731177568435669,0.01860898733139038,-0.15433118161282725,-0.9224910286499016,-0.047655521618697995,-2.0386176109313965,-0.588083803653717,-0.735489547252655
245417.0509816667,0.1359345018863678,-0.12769603729248047,-0.026633799076080322,-0.19697576484123605,-0.9402452838486712,-0.062428634310717705,-2.2376952171325684,-0.5617173910140991,-0.7653129696846008
245417.0711176667,0.1283213496208191,0.0030223727226257324,-0.08254063129425049,-0.2387410792429371,-0.959548501623019,-0.07676957209337087,-1.9437395334243774,-0.44584909081459045,-0.7907038331031799
245417.09125366667,0.16386473178863525,0.04513630270957947,-0.1229063868522644,-0.2724934301139038,-0.9782177707400224,-0.08915839517878624,-1.6112135648727417,-0.3021681010723114,-0.7377346158027649
245417.11138966668,0.16284435987472534,0.0036590397357940674,-0.15814149379730225,-0.30298801042716705,-0.9969117955029331,-0.09923698608656009,-1.611662745475769,-0.18547140061855316,-0.7467060089111328
245417.13152466668,0.24662035703659058,-0.08569282293319702,-0.16386598348617554,-0.3356099520706142,-1.016179180024709,-0.10849556654167461,-1.8798547983169556,-0.14780080318450928,-0.7434923648834229
245417.15166066668,0.31671908497810364,-0.20762121677398682,-0.10056239366531372,-0.3779144988747827,-1.039102529808206,-0.11916742842124221,-2.4440629482269287,-0.09963327646255493,-0.8928722739219666
245417.1717966667,0.3148787319660187,-0.13281655311584473,-0.21022635698318481,-0.4212583275244945,-1.0647686496896385,-0.13042032415925836,-2.010594367980957,-0.011381268501281738,-0.8804441094398499
245417.19193266667,0.2517056465148926,0.03775966167449951,-0.2354278564453125,-0.4507200217375643,-1.088118888216077,-0.1390237583030984,-1.147149920463562,0.11353758722543716,-0.8145771622657776
245417.21206750002,0.2679551839828491,0.16686704754829407,-0.2039738893508911,-0.46306105557421623,-1.1080313970787972,-0.1451980310612524,-0.3680111765861511,0.13289229571819305,-0.7596598863601685
245417.23220350003,0.30076324939727783,0.0868959128856659,-0.15120214223861694,-0.4646305165295739,-1.1245984329926064,-0.1503018792615523,-0.07487962394952774,0.09054739773273468,-0.6860253214836121
245417.2523395,0.2348240464925766,0.03342115879058838,-0.1754201054573059,-0.4641103618514933,-1.1398187604453998,-0.15526246923845796,-0.1061139777302742,0.1069151908159256,-0.658233106136322
245417.2724755,0.19398730993270874,0.018526464700698853,-0.21179407835006714,-0.46416389478826814,-1.1541575892714884,-0.15889004126912204,-0.07362274825572968,0.16401921212673187,-0.5908972024917603
245417.2926105,0.18317829072475433,0.07048588991165161,-0.17834818363189697,-0.46293203847748443,-1.1676829638794022,-0.16142789573073482,0.03324759379029274,0.15990588068962097,-0.6446856260299683
245417.3127465,0.12188293039798737,0.16597658395767212,-0.12629801034927368,-0.45465956430930754,-1.1815724731223038,-0.16537592713350285,0.6305564045906067,0.03992648422718048,-0.6833576560020447
245417.33288250002,0.17373770475387573,0.18562617897987366,-0.09976255893707275,-0.4369400937783311,-1.1926897401090288,-0.1704990565336866,0.8327023386955261,-0.05959922447800636,-0.6108559966087341
245417.35301850003,0.10058829188346863,0.08216258883476257,-0.18944764137268066,-0.41968925978227256,-1.2023923874215146,-0.17586617983288666,0.6496500372886658,-0.07600224763154984,-0.5707983374595642
245417.37315350003,-0.021401599049568176,0.02940693497657776,-0.19541031122207642,-0.40661714211873157,-1.2130892960150474,-0.18142190886261617,0.5477485060691833,-0.05449296534061432,-0.61384516954422
245417.3932895,-0.1021382212638855,0.12995672225952148,-0.17803579568862915,-0.39114074433224066,-1.2232306956744594,-0.1855644982584356,0.8525537252426147,0.024201225489377975,-0.5889129042625427
245417.4134255,-0.13901863992214203,0.16750255227088928,-0.1663820743560791,-0.36871923771972626,-1.2310933786811817,-0.18678737657700714,1.1271917819976807,0.13249671459197998,-0.5370203852653503
245417.43356150002,-0.18715769052505493,0.06709358096122742,-0.11762535572052002,-0.3450470067780163,-1.2376451831432858,-0.18496450509763082,1.0153000354766846,0.24563491344451904,-0.4976879358291626
245417.45369750002,-0.1902850717306137,-0.0031653940677642822,-0.04703778028488159,-0.3251646837914354,-1.2439689133504597,-0.18108721163515581,0.8330637812614441,0.317734032869339,-0.45238545536994934
245417.47383250002,-0.1838677078485489,0.009942024946212769,0.02094358205795288,-0.30681503548224615,-1.2489881136240513,-0.17570800010652435,0.8979870080947876,0.32637491822242737,-0.34619322419166565
245417.49396850003,-0.14080941677093506,0.05630093812942505,0.050864994525909424,-0.28731151170336583,-1.2515591016880276,-0.17001397338719323,0.9563850164413452,0.2929936349391937,-0.24985496699810028
245417.5141045,-0.21206624805927277,0.02237221598625183,0.023117482662200928,-0.26677644876839807,-1.2528663771495703,-0.16433246420200717,1.0457823276519775,0.2987149953842163,-0.23789151012897491
245417.5342405,-0.29793500900268555,0.0034618377685546875,-0.027106404304504395,-0.2444016580460746,-1.254787159172195,-0.15818010795715548,1.079901099205017,0.3388858437538147,-0.31804922223091125
245417.5543755,-0.3497560918331146,-0.006236940622329712,-0.03574633598327637,-0.22260955709500826,-1.258746204574679,-0.15154235623217963,0.9555956125259399,0.3769804835319519,-0.3902698755264282
245417.57451150002,-0.37654954195022583,-0.013000428676605225,-0.020327448844909668,-0.20475093855165646,-1.2641378683804685,-0.1444455587883509,0.7382357120513916,0.3977562487125397,-0.38535767793655396
245417.59464750002,-0.4204041361808777,0.04430495202541351,-0.03397578001022339,-0.18915127392094883,-1.2693811298058886,-0.13707304244210528,0.7740840315818787,0.4392773509025574,-0.35541388392448425
